Folder: BaH12_Nature_Communications_2021 (part 2)

File: BA_4.chi
D:\DATA\UserData\CuiTian20190403\CWH\BA\BA_4.tif: 2-theta Scan
2-Theta Angle (Degrees)
Intensity
       1203
 0.104102  40.4068
 0.21977  37.1672
 0.335438  37.6905
 0.451107  36.5182
 0.566775  35.9032
 0.682444  36.5366
 0.798112  37.1514
 0.913781  37.5998
 1.02945  37.3234
 1.14512  36.8611
 1.26079  38.0323
 1.37645  38.6934
 1.49212  38.8083
 1.60779  39.4331
 1.72346  40.7369
 1.83913  43.3893
 1.9548  93.7449
 2.07046  216.929
 2.18613  367.79
 2.3018  501.723
 2.41747  596.945
 2.53314  686.502
 2.64881  759.502
 2.76448  831.25
 2.88014  889.985
 2.99581  946.214
 3.11148  995.023
 3.22715  1039.5
 3.34282  1072.72
 3.45849  1101.81
 3.57415  1139.4
 3.68982  1159.13
 3.80549  1183.61
 3.92116  1201.91
 4.03683  1217.91
 4.1525  1231.66
 4.26817  1245.74
 4.38383  1254.66
 4.4995  1263.02
 4.61517  1273.91
 4.73084  1272.37
 4.84651  1278.55
 4.96218  1278.2
 5.07784  1280.09
 5.19351  1283.87
 5.30918  1278.93
 5.42485  1283.67
 5.54052  1281.59
 5.65619  1279.27
 5.77185  1278.16
 5.88752  1277.04
 6.00319  1273.11
 6.11886  1273.12
 6.23453  1272.53
 6.3502  1269.01
 6.46587  1266.42
 6.58153  1264.07
 6.6972  1260.52
 6.81287  1256.02
 6.92854  1253.98
 7.04421  1251.78
 7.15988  1249.88
 7.27554  1246.82
 7.39121  1242.82
 7.50688  1242.84
 7.62255  1240.35
 7.73822  1238.79
 7.85389  1236.81
 7.96955  1236.92
 8.08522  1234.84
 8.20089  1233.47
 8.31656  1232.62
 8.43223  1233.09
 8.5479  1233.89
 8.66357  1237.95
 8.77923  1252.27
 8.8949  1275.81
 9.01057  1248.5
 9.12624  1241.89
 9.24191  1251.39
 9.35758  1239.85
 9.47324  1236.84
 9.58891  1301.39
 9.70458  1238.99
 9.82025  1237.2
 9.93592  1243.41
 10.0516  1254.42
 10.1673  1263.27
 10.2829  1264.4
 10.3986  1248.08
 10.5143  1248.78
 10.6299  1258.31
 10.7456  1294.33
 10.8613  1261.98
 10.9769  1263.51
 11.0926  1281.55
 11.2083  1440.47
 11.3239  1574.01
 11.4396  1315.24
 11.5553  1281.67
 11.6709  1299.23
 11.7866  1323.39
 11.9023  1370.62
 12.018  1331.32
 12.1336  1315.02
 12.2493  1314.94
 12.365  1322.16
 12.4806  1339.17
 12.5963  1382.44
 12.712  1368.51
 12.8276  1377.94
 12.9433  1458.67
 13.059  1684.52
 13.1746  1419.16
 13.2903  1365.87
 13.406  1361.63
 13.5216  1367.5
 13.6373  1365.61
 13.753  1363.05
 13.8686  1365.91
 13.9843  1371.44
 14.1  1379.61
 14.2157  1387.05
 14.3313  1388.86
 14.447  1399.43
 14.5627  1439.91
 14.6783  1440.03
 14.794  1449.22
 14.9097  1458.39
 15.0253  1471.36
 15.141  1482.95
 15.2567  1496.91
 15.3723  1508.65
 15.488  1519.03
 15.6037  1535.67
 15.7193  1551.99
 15.835  1564.82
 15.9507  1577.64
 16.0663  1592.69
 16.182  1615.23
 16.2977  1604.11
 16.4134  1607.58
 16.529  1618.07
 16.6447  1625.16
 16.7604  1638.19
 16.876  1647.01
 16.9917  1660.48
 17.1074  1672.94
 17.223  1687.17
 17.3387  1700.8
 17.4544  1723.76
 17.57  1774.34
 17.6857  1814.18
 17.8014  1807.36
 17.917  1806.5
 18.0327  1799.55
 18.1484  1803.8
 18.264  1824.86
 18.3797  1925.71
 18.4954  2101.9
 18.6111  1869.77
 18.7267  1839.39
 18.8424  1837.28
 18.9581  1844.21
 19.0737  1843.44
 19.1894  1845.95
 19.3051  1856.16
 19.4207  1863.74
 19.5364  1874.87
 19.6521  1884.16
 19.7677  1891.63
 19.8834  1902.32
 19.9991  1910.7
 20.1147  1916.97
 20.2304  1921.42
 20.3461  1928.22
 20.4617  1939.1
 20.5774  1954.29
 20.6931  1955.31
 20.8088  1959.5
 20.9244  1963.58
 21.0401  1976.54
 21.1558  1986.42
 21.2714  1995.46
 21.3871  2018.55
 21.5028  2057.41
 21.6184  2135.7
 21.7341  2165.96
 21.8498  2081.9
 21.9654  2036.92
 22.0811  2030.6
 22.1968  2036.17
 22.3124  2040.62
 22.4281  2047.06
 22.5438  2066.22
 22.6594  2085.19
 22.7751  2059.82
 22.8908  2054.56
 23.0065  2056.36
 23.1221  2056.83
 23.2378  2056.97
 23.3535  2056.52
 23.4691  1706.34
 23.5848  1555.73
 23.7005  1440.53
 23.8161  1360.94
 23.9318  1336.36
 24.0475  1383.47
 24.1631  1423.64
 24.2788  1462.16
 24.3945  1509.92
 24.5101  1545.95
 24.6258  1492.48
 24.7415  1254.81
 24.8571  875.409
 24.9728  351.424
 25.0885  0.0000000E+00
 25.2042  0.0000000E+00
 25.3198  0.0000000E+00
 25.4355  0.0000000E+00
 25.5512  0.0000000E+00
 25.6668  0.0000000E+00
 25.7825  0.0000000E+00
 25.8982  0.0000000E+00
 26.0138  0.0000000E+00
 26.1295  0.0000000E+00
 26.2452  0.0000000E+00
 26.3608  0.0000000E+00
 26.4765  0.0000000E+00
 26.5922  0.0000000E+00
 26.7078  0.0000000E+00
 26.8235  0.0000000E+00
 26.9392  0.0000000E+00
 27.0548  0.0000000E+00
 27.1705  0.0000000E+00
 27.2862  0.0000000E+00
 27.4019  0.0000000E+00
 27.5175  0.0000000E+00
 27.6332  0.0000000E+00
 27.7489  0.0000000E+00
 27.8183  0.0000000E+00

File: BA_7.chi
D:\DATA\UserData\CuiTian20190403\\CWH\BA\BA_7.tif: 2-theta Scan
2-Theta Angle (Degrees)
Intensity
       1481
 0.0994862  42.0204
 0.210026  43.3556
 0.320567  41.6266
 0.431107  41.5955
 0.541647  42.6758
 0.652188  43.5078
 0.762728  42.129
 0.873268  43.8774
 0.983808  44.3354
 1.09435  44.2879
 1.20489  44.4495
 1.31543  45.0764
 1.42597  46.0714
 1.53651  47.3671
 1.64705  48.6898
 1.75759  51.6762
 1.86813  65.0273
 1.97867  234.377
 2.08921  444.263
 2.19975  758.608
 2.31029  933.306
 2.42083  1094.31
 2.53137  1242
 2.64191  1372.17
 2.75245  1485.54
 2.86299  1589.01
 2.97353  1681.78
 3.08407  1761.65
 3.19461  1831.05
 3.30515  1894.79
 3.41569  1949.05
 3.52623  2000.37
 3.63677  2049.96
 3.74731  2085.05
 3.85785  2118.63
 3.9684  2152.69
 4.07894  2177.26
 4.18948  2195.14
 4.30002  2212.78
 4.41056  2233.59
 4.5211  2247.5
 4.63164  2255.22
 4.74218  2264.54
 4.85272  2265.13
 4.96326  2270.48
 5.0738  2268.91
 5.18434  2272.77
 5.29488  2268.58
 5.40542  2272.87
 5.51596  2270.32
 5.6265  2269.36
 5.73704  2267.14
 5.84758  2263.02
 5.95812  2256.03
 6.06866  2257.23
 6.1792  2253.31
 6.28974  2251.47
 6.40028  2249.8
 6.51082  2244.63
 6.62136  2237.91
 6.7319  2234.72
 6.84244  2229.34
 6.95298  2230.66
 7.06352  2224.08
 7.17406  2220.04
 7.2846  2217.37
 7.39514  2212.97
 7.50568  2207.46
 7.61622  2208.41
 7.72676  2204.71
 7.8373  2201.23
 7.94784  2199.07
 8.05838  2195.03
 8.16893  2193.11
 8.27946  2191.78
 8.39001  2197.63
 8.50055  2196.22
 8.61109  2205.93
 8.72163  2258.43
 8.83217  2223.35
 8.94271  2202.12
 9.05325  2228.55
 9.16379  2233.46
 9.27433  2198.57
 9.38487  2200.14
 9.49541  2314.32
 9.60595  2203.27
 9.71649  2201.77
 9.82703  2215.01
 9.93757  2241.26
 10.0481  2285.21
 10.1586  2250.82
 10.2692  2220.98
 10.3797  2222.83
 10.4903  2227.59
 10.6008  2267.09
 10.7113  2247.94
 10.8219  2251.8
 10.9324  2282.3
 11.043  2718.53
 11.1535  4046.58
 11.2641  2442.91
 11.3746  2293.88
 11.4851  2275.3
 11.5957  2286.58
 11.7062  2384.76
 11.8168  2443.53
 11.9273  2305.98
 12.0378  2283.44
 12.1484  2286.4
 12.2589  2297.57
 12.3695  2333.51
 12.48  2371.77
 12.5905  2336.27
 12.7011  2363.06
 12.8116  2528.42
 12.9222  2551.91
 13.0327  2339.65
 13.1432  2327.93
 13.2538  2326.28
 13.3643  2335.77
 13.4749  2332.14
 13.5854  2326.24
 13.6959  2327.01
 13.8065  2339.73
 13.917  2360.83
 14.0276  2385.95
 14.1381  2367.5
 14.2486  2355.06
 14.3592  2395.93
 14.4697  2371.84
 14.5803  2354.82
 14.6908  2358.61
 14.8013  2358.28
 14.9119  2362.64
 15.0224  2365.75
 15.133  2367.45
 15.2435  2374.38
 15.354  2377.54
 15.4646  2382.19
 15.5751  2392.62
 15.6857  2490.17
 15.7962  2408.45
 15.9067  2417.33
 16.0173  2421.41
 16.1278  2400.69
 16.2384  2395.25
 16.3489  2392
 16.4594  2390.48
 16.57  2388.52
 16.6805  2388.92
 16.7911  2387.5
 16.9016  2378.03
 17.0121  2375.3
 17.1227  2373.78
 17.2332  2374.52
 17.3438  2399.96
 17.4543  2430.4
 17.5648  2400.2
 17.6754  2367.19
 17.7859  2353.58
 17.8965  2346.31
 18.007  2347.19
 18.1175  2372.08
 18.2281  2610.66
 18.3386  2396.28
 18.4492  2309.82
 18.5597  2283.68
 18.6702  2275.7
 18.7808  2269.57
 18.8913  2251.37
 19.0019  2239.02
 19.1124  2213.98
 19.223  2198.07
 19.3335  2197.48
 19.444  2186.03
 19.5546  2161.5
 19.6651  2149.49
 19.7757  2135.08
 19.8862  2124.38
 19.9967  2115.78
 20.1073  2106.43
 20.2178  2102.17
 20.3284  2108.73
 20.4389  2099.81
 20.5494  2123.91
 20.66  2061.65
 20.7705  2052.24
 20.8811  2044.9
 20.9916  2043.83
 21.1021  2050.19
 21.2127  2089.6
 21.3232  2249.7
 21.4338  2243.3
 21.5443  2118.26
 21.6548  2004.26
 21.7654  1979.33
 21.8759  1966.18
 21.9865  1958.51
 22.097  1949.83
 22.2075  1943.66
 22.3181  1945.24
 22.4286  1949.15
 22.5392  1918.32
 22.6497  1904.1
 22.7602  1894.36
 22.8708  1884.4
 22.9813  1870.97
 23.0919  1865.63
 23.2024  1553.53
 23.3129  1376.08
 23.4235  1263.4
 23.534  1194.98
 23.6446  1156.22
 23.7551  1121.46
 23.8656  1109.88
 23.9762  1106.48
 24.0867  1096.9
 24.1973  1054.86
 24.3078  984.639
 24.4183  885.617
 24.5289  760.12
 24.6394  549.514
 24.75  144.967
 24.8605  0.0000000E+00
 24.971  0.0000000E+00
 25.0816  0.0000000E+00
 25.1921  0.0000000E+00
 25.3027  0.0000000E+00
 25.4132  0.0000000E+00
 25.5237  0.0000000E+00
 25.6343  0.0000000E+00
 25.7448  0.0000000E+00
 25.8554  0.0000000E+00
 25.9659  0.0000000E+00
 26.0764  0.0000000E+00
 26.187  0.0000000E+00
 26.2975  0.0000000E+00
 26.4081  0.0000000E+00
 26.5186  0.0000000E+00
 26.6291  0.0000000E+00
 26.7397  0.0000000E+00
 26.8502  0.0000000E+00
 26.9608  0.0000000E+00
 27.0713  0.0000000E+00
 27.1818  0.0000000E+00
 27.2924  0.0000000E+00
 27.4029  0.0000000E+00
 27.5135  0.0000000E+00
 27.624  0.0000000E+00
 27.7345  0.0000000E+00
 27.8451  0.0000000E+00
 27.9556  0.0000000E+00
 28.0662  0.0000000E+00
 28.1767  0.0000000E+00
 28.2873  0.0000000E+00
 28.3978  0.0000000E+00
 28.5083  0.0000000E+00
 28.6189  0.0000000E+00
 28.7294  0.0000000E+00
 28.84  0.0000000E+00
 28.9505  0.0000000E+00
 29.061  0.0000000E+00
 29.1716  0.0000000E+00
 29.2821  0.0000000E+00
 29.3927  0.0000000E+00
 29.5032  0.0000000E+00
 29.6137  0.0000000E+00
 29.7243  0.0000000E+00
 29.8348  0.0000000E+00
 29.9454  0.0000000E+00
 30.0559  0.0000000E+00
 30.1664  0.0000000E+00
 30.277  0.0000000E+00
 30.3875  0.0000000E+00
 30.4981  0.0000000E+00
 30.6086  0.0000000E+00
 30.7191  0.0000000E+00
 30.8297  0.0000000E+00
 30.9402  0.0000000E+00
 31.0508  0.0000000E+00
 31.1613  0.0000000E+00
 31.2718  0.0000000E+00
 31.3824  0.0000000E+00
 31.4929  0.0000000E+00
 31.6035  0.0000000E+00
 31.714  0.0000000E+00
 31.8245  0.0000000E+00
 31.9351  0.0000000E+00
 32.0456  0.0000000E+00
 32.1562  0.0000000E+00
 32.2667  0.0000000E+00
 32.3772  0.0000000E+00
 32.4878  0.0000000E+00
 32.5983  0.0000000E+00
 32.7089  0.0000000E+00
 32.731  0.0000000E+00

File: BA_8.chi
D:\DATA\UserData\CuiTian20190403\\CWH\BA\BA_8.tif: 2-theta Scan
2-Theta Angle (Degrees)
Intensity
       1481
 0.0994862  45.7604
 0.210026  42.9025
 0.320567  43.5805
 0.431107  43.3571
 0.541647  43.5568
 0.652188  43.778
 0.762728  43.6138
 0.873268  43.9257
 0.983808  44.4884
 1.09435  44.302
 1.20489  45.7276
 1.31543  46.1958
 1.42597  47.8837
 1.53651  48.5561
 1.64705  50.2501
 1.75759  52.6446
 1.86813  66.9007
 1.97867  237.902
 2.08921  455.635
 2.19975  768.313
 2.31029  954.467
 2.42083  1120.24
 2.53137  1271.55
 2.64191  1401.35
 2.75245  1519.36
 2.86299  1621.49
 2.97353  1717.29
 3.08407  1801.08
 3.19461  1871.49
 3.30515  1938.37
 3.41569  1994.98
 3.52623  2042.1
 3.63677  2092.25
 3.74731  2129.82
 3.85785  2168.81
 3.9684  2198.3
 4.07894  2228.84
 4.18948  2248.21
 4.30002  2263.63
 4.41056  2279.67
 4.5211  2291.17
 4.63164  2303.29
 4.74218  2308.13
 4.85272  2311.86
 4.96326  2319.59
 5.0738  2322.28
 5.18434  2324.57
 5.29488  2318.02
 5.40542  2322.43
 5.51596  2319.83
 5.6265  2318.88
 5.73704  2317.64
 5.84758  2312.88
 5.95812  2311.57
 6.06866  2308.24
 6.1792  2303.13
 6.28974  2299.55
 6.40028  2308.58
 6.51082  2291.7
 6.62136  2288.46
 6.7319  2287.39
 6.84244  2277.54
 6.95298  2275.52
 7.06352  2275.53
 7.17406  2268.78
 7.2846  2264.74
 7.39514  2263.58
 7.50568  2257.88
 7.61622  2253.31
 7.72676  2249.4
 7.8373  2250.64
 7.94784  2249.85
 8.05838  2246.82
 8.16893  2243.04
 8.27946  2243.9
 8.39001  2245.43
 8.50055  2245.53
 8.61109  2261.43
 8.72163  2317.41
 8.83217  2266.23
 8.94271  2249.93
 9.05325  2295.87
 9.16379  2277.68
 9.27433  2248.5
 9.38487  2247
 9.49541  2351.3
 9.60595  2256.54
 9.71649  2250.95
 9.82703  2263.43
 9.93757  2292.08
 10.0481  2323.46
 10.1586  2295.45
 10.2692  2269.33
 10.3797  2270.83
 10.4903  2278.22
 10.6008  2315.42
 10.7113  2300.74
 10.8219  2309.31
 10.9324  2350.56
 11.043  3299.41
 11.1535  3837.04
 11.2641  2451.41
 11.3746  2341.49
 11.4851  2330.06
 11.5957  2345.68
 11.7062  2435.37
 11.8168  2469.73
 11.9273  2352.79
 12.0378  2339.62
 12.1484  2340.19
 12.2589  2351.74
 12.3695  2394.17
 12.48  2419.94
 12.5905  2394.53
 12.7011  2438.58
 12.8116  2547.29
 12.9222  2568.09
 13.0327  2389.68
 13.1432  2382.6
 13.2538  2384.83
 13.3643  2390.51
 13.4749  2388.09
 13.5854  2381.12
 13.6959  2381.88
 13.8065  2396.17
 13.917  2424.99
 14.0276  2442.58
 14.1381  2415.94
 14.2486  2407.9
 14.3592  2439.36
 14.4697  2416.1
 14.5803  2406.15
 14.6908  2408.75
 14.8013  2409.54
 14.9119  2414.33
 15.0224  2417.34
 15.133  2422.18
 15.2435  2425.86
 15.354  2428.57
 15.4646  2434.5
 15.5751  2448.54
 15.6857  2469.27
 15.7962  2462.12
 15.9067  2472.73
 16.0173  2469.04
 16.1278  2451.01
 16.2384  2446.3
 16.3489  2444.02
 16.4594  2443.66
 16.57  2440.68
 16.6805  2440.37
 16.7911  2440.04
 16.9016  2432.76
 17.0121  2429.59
 17.1227  2428.38
 17.2332  2431
 17.3438  2459.09
 17.4543  2473.3
 17.5648  2442.73
 17.6754  2415.09
 17.7859  2405.13
 17.8965  2400.34
 18.007  2401.47
 18.1175  2436.03
 18.2281  2516.59
 18.3386  2397.32
 18.4492  2352.37
 18.5597  2329.63
 18.6702  2329.82
 18.7808  2316.22
 18.8913  2299.41
 19.0019  2289.35
 19.1124  2263.31
 19.223  2246.93
 19.3335  2261.04
 19.444  2229.31
 19.5546  2208.03
 19.6651  2194.37
 19.7757  2181.41
 19.8862  2171.25
 19.9967  2160.96
 20.1073  2154.3
 20.2178  2149.53
 20.3284  2146.18
 20.4389  2163.44
 20.5494  2121.01
 20.66  2104.93
 20.7705  2096.17
 20.8811  2089.89
 20.9916  2089.31
 21.1021  2102.91
 21.2127  2151.33
 21.3232  2261.12
 21.4338  2357.61
 21.5443  2090.4
 21.6548  2038.77
 21.7654  2020.34
 21.8759  2010.88
 21.9865  2001.08
 22.097  1991.3
 22.2075  1984.79
 22.3181  1989.29
 22.4286  1975.49
 22.5392  1955.69
 22.6497  1943.4
 22.7602  1934.14
 22.8708  1925.42
 22.9813  1912.32
 23.0919  1905.36
 23.2024  1588.31
 23.3129  1406.21
 23.4235  1290.86
 23.534  1220.48
 23.6446  1180.56
 23.7551  1144.58
 23.8656  1133.49
 23.9762  1131.13
 24.0867  1121.67
 24.1973  1078.26
 24.3078  1005.89
 24.4183  906.811
 24.5289  778.291
 24.6394  562.233
 24.75  148.208
 24.8605  0.0000000E+00
 24.971  0.0000000E+00
 25.0816  0.0000000E+00
 25.1921  0.0000000E+00
 25.3027  0.0000000E+00
 25.4132  0.0000000E+00
 25.5237  0.0000000E+00
 25.6343  0.0000000E+00
 25.7448  0.0000000E+00
 25.8554  0.0000000E+00
 25.9659  0.0000000E+00
 26.0764  0.0000000E+00
 26.187  0.0000000E+00
 26.2975  0.0000000E+00
 26.4081  0.0000000E+00
 26.5186  0.0000000E+00
 26.6291  0.0000000E+00
 26.7397  0.0000000E+00
 26.8502  0.0000000E+00
 26.9608  0.0000000E+00
 27.0713  0.0000000E+00
 27.1818  0.0000000E+00
 27.2924  0.0000000E+00
 27.4029  0.0000000E+00
 27.5135  0.0000000E+00
 27.624  0.0000000E+00
 27.7345  0.0000000E+00
 27.8451  0.0000000E+00
 27.9556  0.0000000E+00
 28.0662  0.0000000E+00
 28.1767  0.0000000E+00
 28.2873  0.0000000E+00
 28.3978  0.0000000E+00
 28.5083  0.0000000E+00
 28.6189  0.0000000E+00
 28.7294  0.0000000E+00
 28.84  0.0000000E+00
 28.9505  0.0000000E+00
 29.061  0.0000000E+00
 29.1716  0.0000000E+00
 29.2821  0.0000000E+00
 29.3927  0.0000000E+00
 29.5032  0.0000000E+00
 29.6137  0.0000000E+00
 29.7243  0.0000000E+00
 29.8348  0.0000000E+00
 29.9454  0.0000000E+00
 30.0559  0.0000000E+00
 30.1664  0.0000000E+00
 30.277  0.0000000E+00
 30.3875  0.0000000E+00
 30.4981  0.0000000E+00
 30.6086  0.0000000E+00
 30.7191  0.0000000E+00
 30.8297  0.0000000E+00
 30.9402  0.0000000E+00
 31.0508  0.0000000E+00
 31.1613  0.0000000E+00
 31.2718  0.0000000E+00
 31.3824  0.0000000E+00
 31.4929  0.0000000E+00
 31.6035  0.0000000E+00
 31.714  0.0000000E+00
 31.8245  0.0000000E+00
 31.9351  0.0000000E+00
 32.0456  0.0000000E+00
 32.1562  0.0000000E+00
 32.2667  0.0000000E+00
 32.3772  0.0000000E+00
 32.4878  0.0000000E+00
 32.5983  0.0000000E+00
 32.7089  0.0000000E+00
 32.731  0.0000000E+00

File: BA_9.chi
D:\DATA\UserData\CuiTian20190403\\CWH\BA\BA_9.tif: 2-theta Scan
2-Theta Angle (Degrees)
Intensity
       1481
 0.0994862  42.7952
 0.210026  43.2939
 0.320567  41.8074
 0.431107  42.5391
 0.541647  43.3958
 0.652188  42.4914
 0.762728  43.8414
 0.873268  44.0037
 0.983808  44.154
 1.09435  44.0562
 1.20489  46.0775
 1.31543  46.5702
 1.42597  46.8429
 1.53651  47.3037
 1.64705  49.4281
 1.75759  52.44
 1.86813  64.043
 1.97867  223.671
 2.08921  443.9
 2.19975  746.535
 2.31029  940.136
 2.42083  1104.43
 2.53137  1250.24
 2.64191  1375.9
 2.75245  1494.3
 2.86299  1594.82
 2.97353  1693.16
 3.08407  1774.58
 3.19461  1843.08
 3.30515  1905.86
 3.41569  1959.72
 3.52623  2015.43
 3.63677  2060.04
 3.74731  2097.24
 3.85785  2129.45
 3.9684  2164.82
 4.07894  2195.53
 4.18948  2213.99
 4.30002  2230.1
 4.41056  2243.63
 4.5211  2257.82
 4.63164  2266.47
 4.74218  2272.97
 4.85272  2276.7
 4.96326  2282.52
 5.0738  2283.89
 5.18434  2287.43
 5.29488  2282.74
 5.40542  2282.63
 5.51596  2282
 5.6265  2278.76
 5.73704  2282.38
 5.84758  2277.74
 5.95812  2273.46
 6.06866  2270.36
 6.1792  2265.67
 6.28974  2264.89
 6.40028  2274.72
 6.51082  2260.73
 6.62136  2252.23
 6.7319  2250.72
 6.84244  2243
 6.95298  2239.92
 7.06352  2238.05
 7.17406  2229.15
 7.2846  2227.78
 7.39514  2226.5
 7.50568  2219.58
 7.61622  2217.02
 7.72676  2218.9
 7.8373  2212.65
 7.94784  2213.25
 8.05838  2208.69
 8.16893  2208.85
 8.27946  2207.6
 8.39001  2209.36
 8.50055  2211.25
 8.61109  2228.31
 8.72163  2256.87
 8.83217  2224.75
 8.94271  2215.02
 9.05325  2297.32
 9.16379  2223.86
 9.27433  2212.88
 9.38487  2209.15
 9.49541  2319.45
 9.60595  2220.28
 9.71649  2216.71
 9.82703  2228.17
 9.93757  2262.34
 10.0481  2283.51
 10.1586  2268.28
 10.2692  2233.84
 10.3797  2234.23
 10.4903  2245.07
 10.6008  2272.49
 10.7113  2270.36
 10.8219  2284.26
 10.9324  2531.08
 11.043  3684.9
 11.1535  3587.57
 11.2641  2463.85
 11.3746  2307.19
 11.4851  2302.39
 11.5957  2330.65
 11.7062  2417.36
 11.8168  2429.85
 11.9273  2346.78
 12.0378  2303.99
 12.1484  2309.62
 12.2589  2323.75
 12.3695  2376.56
 12.48  2378.85
 12.5905  2369.61
 12.7011  2466.77
 12.8116  2716.16
 12.9222  2456.34
 13.0327  2358.43
 13.1432  2349.81
 13.2538  2351.49
 13.3643  2354.14
 13.4749  2350.41
 13.5854  2343.62
 13.6959  2348.44
 13.8065  2371.14
 13.917  2409.4
 14.0276  2400.64
 14.1381  2374.91
 14.2486  2381.19
 14.3592  2384.51
 14.4697  2369.65
 14.5803  2367.83
 14.6908  2370.33
 14.8013  2374.44
 14.9119  2374.33
 15.0224  2381.29
 15.133  2385.22
 15.2435  2386.59
 15.354  2391.16
 15.4646  2396.87
 15.5751  2414.64
 15.6857  2434.23
 15.7962  2426.53
 15.9067  2433.4
 16.0173  2429.04
 16.1278  2412.13
 16.2384  2410.53
 16.3489  2404.81
 16.4594  2404.92
 16.57  2401.57
 16.6805  2402.38
 16.7911  2398.34
 16.9016  2393.07
 17.0121  2390.5
 17.1227  2393.78
 17.2332  2401.7
 17.3438  2434.83
 17.4543  2434.41
 17.5648  2406.1
 17.6754  2377.25
 17.7859  2367.39
 17.8965  2367.07
 18.007  2373.45
 18.1175  2479.43
 18.2281  2451.57
 18.3386  2349.61
 18.4492  2311.57
 18.5597  2293.45
 18.6702  2291.09
 18.7808  2274.26
 18.8913  2267.18
 19.0019  2249.78
 19.1124  2224.69
 19.223  2214.86
 19.3335  2206.27
 19.444  2184.69
 19.5546  2170.5
 19.6651  2159.55
 19.7757  2147.18
 19.8862  2136.63
 19.9967  2128.74
 20.1073  2119.4
 20.2178  2118.16
 20.3284  2111.53
 20.4389  2153.93
 20.5494  2083.79
 20.66  2071.83
 20.7705  2063.09
 20.8811  2056.68
 20.9916  2062.23
 21.1021  2083.98
 21.2127  2134.17
 21.3232  2264.48
 21.4338  2157.29
 21.5443  2038.29
 21.6548  2003.53
 21.7654  1986.96
 21.8759  1977.24
 21.9865  1967.3
 22.097  1959.05
 22.2075  1958.59
 22.3181  1967.02
 22.4286  1936.14
 22.5392  1922.38
 22.6497  1912.57
 22.7602  1903.15
 22.8708  1895.36
 22.9813  1882.42
 23.0919  1874.57
 23.2024  1562.13
 23.3129  1381.11
 23.4235  1270.97
 23.534  1201.36
 23.6446  1163.3
 23.7551  1127.91
 23.8656  1116.37
 23.9762  1113.34
 24.0867  1105.37
 24.1973  1061.88
 24.3078  991.327
 24.4183  891.054
 24.5289  766.156
 24.6394  552.307
 24.75  145.744
 24.8605  0.0000000E+00
 24.971  0.0000000E+00
 25.0816  0.0000000E+00
 25.1921  0.0000000E+00
 25.3027  0.0000000E+00
 25.4132  0.0000000E+00
 25.5237  0.0000000E+00
 25.6343  0.0000000E+00
 25.7448  0.0000000E+00
 25.8554  0.0000000E+00
 25.9659  0.0000000E+00
 26.0764  0.0000000E+00
 26.187  0.0000000E+00
 26.2975  0.0000000E+00
 26.4081  0.0000000E+00
 26.5186  0.0000000E+00
 26.6291  0.0000000E+00
 26.7397  0.0000000E+00
 26.8502  0.0000000E+00
 26.9608  0.0000000E+00
 27.0713  0.0000000E+00
 27.1818  0.0000000E+00
 27.2924  0.0000000E+00
 27.4029  0.0000000E+00
 27.5135  0.0000000E+00
 27.624  0.0000000E+00
 27.7345  0.0000000E+00
 27.8451  0.0000000E+00
 27.9556  0.0000000E+00
 28.0662  0.0000000E+00
 28.1767  0.0000000E+00
 28.2873  0.0000000E+00
 28.3978  0.0000000E+00
 28.5083  0.0000000E+00
 28.6189  0.0000000E+00
 28.7294  0.0000000E+00
 28.84  0.0000000E+00
 28.9505  0.0000000E+00
 29.061  0.0000000E+00
 29.1716  0.0000000E+00
 29.2821  0.0000000E+00
 29.3927  0.0000000E+00
 29.5032  0.0000000E+00
 29.6137  0.0000000E+00
 29.7243  0.0000000E+00
 29.8348  0.0000000E+00
 29.9454  0.0000000E+00
 30.0559  0.0000000E+00
 30.1664  0.0000000E+00
 30.277  0.0000000E+00
 30.3875  0.0000000E+00
 30.4981  0.0000000E+00
 30.6086  0.0000000E+00
 30.7191  0.0000000E+00
 30.8297  0.0000000E+00
 30.9402  0.0000000E+00
 31.0508  0.0000000E+00
 31.1613  0.0000000E+00
 31.2718  0.0000000E+00
 31.3824  0.0000000E+00
 31.4929  0.0000000E+00
 31.6035  0.0000000E+00
 31.714  0.0000000E+00
 31.8245  0.0000000E+00
 31.9351  0.0000000E+00
 32.0456  0.0000000E+00
 32.1562  0.0000000E+00
 32.2667  0.0000000E+00
 32.3772  0.0000000E+00
 32.4878  0.0000000E+00
 32.5983  0.0000000E+00
 32.7089  0.0000000E+00
 32.731  0.0000000E+00