Folder: BaH12_Nature_Communications_2021 (part 3)

File: BA_10.chi
D:\DATA\UserData\CuiTian20190403\\CWH\BA\BA_10.tif: 2-theta Scan
2-Theta Angle (Degrees)
Intensity
       1481
 0.0994862  44.3583
 0.210026  39.4713
 0.320567  40.6056
 0.431107  40.9185
 0.541647  41.896
 0.652188  41.1342
 0.762728  41.2921
 0.873268  41.6653
 0.983808  42.3856
 1.09435  42.9673
 1.20489  43.1982
 1.31543  43.7478
 1.42597  44.998
 1.53651  45.7377
 1.64705  48.6708
 1.75759  49.6219
 1.86813  59.5787
 1.97867  205.118
 2.08921  409.571
 2.19975  681.095
 2.31029  858.93
 2.42083  1012.2
 2.53137  1139.77
 2.64191  1253.25
 2.75245  1354.56
 2.86299  1444.6
 2.97353  1532.79
 3.08407  1608.68
 3.19461  1664.59
 3.30515  1720.75
 3.41569  1769.21
 3.52623  1820.98
 3.63677  1859.49
 3.74731  1895.39
 3.85785  1925.75
 3.9684  1954.7
 4.07894  1977.7
 4.18948  1995.48
 4.30002  2011.28
 4.41056  2025.54
 4.5211  2035.79
 4.63164  2044.03
 4.74218  2053.33
 4.85272  2054.42
 4.96326  2056.54
 5.0738  2057.51
 5.18434  2058.56
 5.29488  2057.69
 5.40542  2059.63
 5.51596  2054.63
 5.6265  2057.1
 5.73704  2051.48
 5.84758  2051.13
 5.95812  2048.43
 6.06866  2045.17
 6.1792  2035.27
 6.28974  2041.16
 6.40028  2044.88
 6.51082  2031.79
 6.62136  2028.71
 6.7319  2026.35
 6.84244  2020.54
 6.95298  2019.88
 7.06352  2012.58
 7.17406  2008.52
 7.2846  2007.43
 7.39514  2001.75
 7.50568  1999.2
 7.61622  1997.47
 7.72676  1995.61
 7.8373  1990.66
 7.94784  1990.2
 8.05838  1988.17
 8.16893  1988.03
 8.27946  1985.24
 8.39001  1986.75
 8.50055  1989.11
 8.61109  2012.94
 8.72163  2017.34
 8.83217  1995.89
 8.94271  1988.96
 9.05325  2015.22
 9.16379  1998.59
 9.27433  1993.05
 9.38487  1988.59
 9.49541  2071.32
 9.60595  1997.97
 9.71649  2003.57
 9.82703  2010
 9.93757  2033.22
 10.0481  2059
 10.1586  2048.61
 10.2692  2015.87
 10.3797  2016.55
 10.4903  2025.03
 10.6008  2036.8
 10.7113  2049.21
 10.8219  2080.11
 10.9324  2312.51
 11.043  3102.13
 11.1535  2936.41
 11.2641  2236.69
 11.3746  2096
 11.4851  2089.18
 11.5957  2114.23
 11.7062  2165.97
 11.8168  2192.61
 11.9273  2130.51
 12.0378  2081.83
 12.1484  2084.1
 12.2589  2097
 12.3695  2119.35
 12.48  2147.61
 12.5905  2151.86
 12.7011  2439.51
 12.8116  2514.11
 12.9222  2284.89
 13.0327  2119.57
 13.1432  2106.75
 13.2538  2107.46
 13.3643  2104.92
 13.4749  2104.08
 13.5854  2099.75
 13.6959  2102.8
 13.8065  2115.14
 13.917  2125.75
 14.0276  2119
 14.1381  2116.49
 14.2486  2131.27
 14.3592  2154.38
 14.4697  2129.19
 14.5803  2123.97
 14.6908  2126.25
 14.8013  2126.89
 14.9119  2129.49
 15.0224  2135.67
 15.133  2138.04
 15.2435  2142.61
 15.354  2144.43
 15.4646  2151.39
 15.5751  2168.47
 15.6857  2183.68
 15.7962  2186.02
 15.9067  2210.78
 16.0173  2249.42
 16.1278  2179.03
 16.2384  2162.4
 16.3489  2157.96
 16.4594  2153.44
 16.57  2156.39
 16.6805  2154.63
 16.7911  2148.7
 16.9016  2149.99
 17.0121  2145.1
 17.1227  2148.37
 17.2332  2179.62
 17.3438  2192.69
 17.4543  2177.01
 17.5648  2155.74
 17.6754  2135.73
 17.7859  2130.05
 17.8965  2132.59
 18.007  2231.18
 18.1175  2504.65
 18.2281  2255.46
 18.3386  2113.02
 18.4492  2076.43
 18.5597  2061.29
 18.6702  2059.95
 18.7808  2043.91
 18.8913  2031.95
 19.0019  2006.66
 19.1124  1991.26
 19.223  1981.02
 19.3335  1975.87
 19.444  1960.74
 19.5546  1951.58
 19.6651  1940.35
 19.7757  1926.06
 19.8862  1918.17
 19.9967  1908.94
 20.1073  1902.22
 20.2178  1896.98
 20.3284  1893.51
 20.4389  1888.13
 20.5494  1873.26
 20.66  1864.08
 20.7705  1859.16
 20.8811  1857.95
 20.9916  1867.36
 21.1021  1899.37
 21.2127  1957.26
 21.3232  2127.98
 21.4338  2053.15
 21.5443  1887.77
 21.6548  1818.66
 21.7654  1792.47
 21.8759  1781.22
 21.9865  1775.88
 22.097  1793.78
 22.2075  1815.97
 22.3181  1768.1
 22.4286  1741.07
 22.5392  1730.18
 22.6497  1722.07
 22.7602  1710.64
 22.8708  1701.1
 22.9813  1692.25
 23.0919  1685.8
 23.2024  1405.61
 23.3129  1242.8
 23.4235  1142.32
 23.534  1078.98
 23.6446  1044.61
 23.7551  1015.14
 23.8656  1004
 23.9762  1001.04
 24.0867  993.164
 24.1973  952.805
 24.3078  887.999
 24.4183  799.436
 24.5289  686.94
 24.6394  496.287
 24.75  130.468
 24.8605  0.0000000E+00
 24.971  0.0000000E+00
 25.0816  0.0000000E+00
 25.1921  0.0000000E+00
 25.3027  0.0000000E+00
 25.4132  0.0000000E+00
 25.5237  0.0000000E+00
 25.6343  0.0000000E+00
 25.7448  0.0000000E+00
 25.8554  0.0000000E+00
 25.9659  0.0000000E+00
 26.0764  0.0000000E+00
 26.187  0.0000000E+00
 26.2975  0.0000000E+00
 26.4081  0.0000000E+00
 26.5186  0.0000000E+00
 26.6291  0.0000000E+00
 26.7397  0.0000000E+00
 26.8502  0.0000000E+00
 26.9608  0.0000000E+00
 27.0713  0.0000000E+00
 27.1818  0.0000000E+00
 27.2924  0.0000000E+00
 27.4029  0.0000000E+00
 27.5135  0.0000000E+00
 27.624  0.0000000E+00
 27.7345  0.0000000E+00
 27.8451  0.0000000E+00
 27.9556  0.0000000E+00
 28.0662  0.0000000E+00
 28.1767  0.0000000E+00
 28.2873  0.0000000E+00
 28.3978  0.0000000E+00
 28.5083  0.0000000E+00
 28.6189  0.0000000E+00
 28.7294  0.0000000E+00
 28.84  0.0000000E+00
 28.9505  0.0000000E+00
 29.061  0.0000000E+00
 29.1716  0.0000000E+00
 29.2821  0.0000000E+00
 29.3927  0.0000000E+00
 29.5032  0.0000000E+00
 29.6137  0.0000000E+00
 29.7243  0.0000000E+00
 29.8348  0.0000000E+00
 29.9454  0.0000000E+00
 30.0559  0.0000000E+00
 30.1664  0.0000000E+00
 30.277  0.0000000E+00
 30.3875  0.0000000E+00
 30.4981  0.0000000E+00
 30.6086  0.0000000E+00
 30.7191  0.0000000E+00
 30.8297  0.0000000E+00
 30.9402  0.0000000E+00
 31.0508  0.0000000E+00
 31.1613  0.0000000E+00
 31.2718  0.0000000E+00
 31.3824  0.0000000E+00
 31.4929  0.0000000E+00
 31.6035  0.0000000E+00
 31.714  0.0000000E+00
 31.8245  0.0000000E+00
 31.9351  0.0000000E+00
 32.0456  0.0000000E+00
 32.1562  0.0000000E+00
 32.2667  0.0000000E+00
 32.3772  0.0000000E+00
 32.4878  0.0000000E+00
 32.5983  0.0000000E+00
 32.7089  0.0000000E+00
 32.731  0.0000000E+00

File: BA_11.chi
D:\DATA\UserData\CuiTian20190403\\CWH\BA\BA_11.tif: 2-theta Scan
2-Theta Angle (Degrees)
Intensity
       1481
 0.0994862  53.092
 0.210026  46.0781
 0.320567  45.3642
 0.431107  40.954
 0.541647  40.102
 0.652188  40.7702
 0.762728  41.0359
 0.873268  40.0997
 0.983808  40.6757
 1.09435  41.2316
 1.20489  41.8552
 1.31543  42.7377
 1.42597  42.8721
 1.53651  44.19
 1.64705  44.9796
 1.75759  46.7465
 1.86813  55.7824
 1.97867  194.676
 2.08921  379.845
 2.19975  633.048
 2.31029  788.132
 2.42083  920.358
 2.53137  1032.49
 2.64191  1129.76
 2.75245  1216.98
 2.86299  1298.82
 2.97353  1372.96
 3.08407  1432.95
 3.19461  1486.22
 3.30515  1535.34
 3.41569  1575.9
 3.52623  1617.09
 3.63677  1653.76
 3.74731  1681.5
 3.85785  1708.19
 3.9684  1727.96
 4.07894  1748.73
 4.18948  1770.09
 4.30002  1777.36
 4.41056  1793.62
 4.5211  1797.07
 4.63164  1804.41
 4.74218  1810.85
 4.85272  1813.02
 4.96326  1820.13
 5.0738  1817.83
 5.18434  1817.91
 5.29488  1814
 5.40542  1814.9
 5.51596  1811.03
 5.6265  1810.73
 5.73704  1807.91
 5.84758  1807.4
 5.95812  1798.7
 6.06866  1801.5
 6.1792  1791.61
 6.28974  1794.67
 6.40028  1797.04
 6.51082  1788.3
 6.62136  1784.24
 6.7319  1779.27
 6.84244  1775.57
 6.95298  1775.16
 7.06352  1770.85
 7.17406  1766.44
 7.2846  1764.02
 7.39514  1757.44
 7.50568  1758.53
 7.61622  1755.17
 7.72676  1752.02
 7.8373  1748.21
 7.94784  1747.1
 8.05838  1744.28
 8.16893  1746.58
 8.27946  1745.17
 8.39001  1746.76
 8.50055  1748.87
 8.61109  1770.44
 8.72163  1757.54
 8.83217  1747.33
 8.94271  1752.74
 9.05325  1772.14
 9.16379  1774.69
 9.27433  1768.18
 9.38487  1745.21
 9.49541  1831.89
 9.60595  1755.91
 9.71649  1757.24
 9.82703  1762.57
 9.93757  1786.83
 10.0481  1796.08
 10.1586  1787.36
 10.2692  1777.75
 10.3797  1777.26
 10.4903  1781.67
 10.6008  1820.34
 10.7113  1809.89
 10.8219  1844.99
 10.9324  1968.28
 11.043  2413.19
 11.1535  2213.71
 11.2641  2002.26
 11.3746  1847.6
 11.4851  1836.25
 11.5957  1854.38
 11.7062  1892.09
 11.8168  1928.27
 11.9273  1878.17
 12.0378  1847.44
 12.1484  1841.22
 12.2589  1851.14
 12.3695  1882.02
 12.48  1910.85
 12.5905  1934.68
 12.7011  2091.9
 12.8116  2760.01
 12.9222  2168.36
 13.0327  1877.45
 13.1432  1852.61
 13.2538  1844.14
 13.3643  1840.43
 13.4749  1837.79
 13.5854  1837.23
 13.6959  1839.48
 13.8065  1845.54
 13.917  1845
 14.0276  1845.56
 14.1381  1850.16
 14.2486  1864
 14.3592  1870.81
 14.4697  1857.86
 14.5803  1854.83
 14.6908  1858.63
 14.8013  1859.73
 14.9119  1861.75
 15.0224  1865.13
 15.133  1868.15
 15.2435  1869.85
 15.354  1874.55
 15.4646  1879.17
 15.5751  1893.46
 15.6857  1900.74
 15.7962  1899.76
 15.9067  1903.18
 16.0173  1900.22
 16.1278  1893.51
 16.2384  1885.79
 16.3489  1882.79
 16.4594  1880.55
 16.57  1876.56
 16.6805  1878.74
 16.7911  1874.42
 16.9016  1873.36
 17.0121  1875.11
 17.1227  1894.34
 17.2332  1929.12
 17.3438  1909.68
 17.4543  1880.82
 17.5648  1868
 17.6754  1858.75
 17.7859  1859.61
 17.8965  1869.85
 18.007  1915.09
 18.1175  1956.53
 18.2281  1918.01
 18.3386  1864.57
 18.4492  1844.06
 18.5597  1834.9
 18.6702  1796.36
 18.7808  1776.47
 18.8913  1762.61
 19.0019  1748.36
 19.1124  1737.86
 19.223  1732.8
 19.3335  1725.47
 19.444  1717.3
 19.5546  1708.53
 19.6651  1703.74
 19.7757  1683.56
 19.8862  1676.29
 19.9967  1670.37
 20.1073  1666.57
 20.2178  1657.69
 20.3284  1652.63
 20.4389  1649.53
 20.5494  1644.39
 20.66  1633.66
 20.7705  1626.37
 20.8811  1626.79
 20.9916  1645.58
 21.1021  1682.57
 21.2127  1721.77
 21.3232  1719.27
 21.4338  1674.64
 21.5443  1632.62
 21.6548  1592.12
 21.7654  1565.08
 21.8759  1553.7
 21.9865  1544.92
 22.097  1540.11
 22.2075  1537.89
 22.3181  1528.92
 22.4286  1515.76
 22.5392  1507.61
 22.6497  1498.96
 22.7602  1489.4
 22.8708  1482.39
 22.9813  1473.88
 23.0919  1467.1
 23.2024  1222.02
 23.3129  1080.91
 23.4235  995.195
 23.534  940.331
 23.6446  910.25
 23.7551  882.71
 23.8656  874.813
 23.9762  874.191
 24.0867  865.66
 24.1973  832.472
 24.3078  776.409
 24.4183  699.805
 24.5289  599.944
 24.6394  434.048
 24.75  114.739
 24.8605  0.0000000E+00
 24.971  0.0000000E+00
 25.0816  0.0000000E+00
 25.1921  0.0000000E+00
 25.3027  0.0000000E+00
 25.4132  0.0000000E+00
 25.5237  0.0000000E+00
 25.6343  0.0000000E+00
 25.7448  0.0000000E+00
 25.8554  0.0000000E+00
 25.9659  0.0000000E+00
 26.0764  0.0000000E+00
 26.187  0.0000000E+00
 26.2975  0.0000000E+00
 26.4081  0.0000000E+00
 26.5186  0.0000000E+00
 26.6291  0.0000000E+00
 26.7397  0.0000000E+00
 26.8502  0.0000000E+00
 26.9608  0.0000000E+00
 27.0713  0.0000000E+00
 27.1818  0.0000000E+00
 27.2924  0.0000000E+00
 27.4029  0.0000000E+00
 27.5135  0.0000000E+00
 27.624  0.0000000E+00
 27.7345  0.0000000E+00
 27.8451  0.0000000E+00
 27.9556  0.0000000E+00
 28.0662  0.0000000E+00
 28.1767  0.0000000E+00
 28.2873  0.0000000E+00
 28.3978  0.0000000E+00
 28.5083  0.0000000E+00
 28.6189  0.0000000E+00
 28.7294  0.0000000E+00
 28.84  0.0000000E+00
 28.9505  0.0000000E+00
 29.061  0.0000000E+00
 29.1716  0.0000000E+00
 29.2821  0.0000000E+00
 29.3927  0.0000000E+00
 29.5032  0.0000000E+00
 29.6137  0.0000000E+00
 29.7243  0.0000000E+00
 29.8348  0.0000000E+00
 29.9454  0.0000000E+00
 30.0559  0.0000000E+00
 30.1664  0.0000000E+00
 30.277  0.0000000E+00
 30.3875  0.0000000E+00
 30.4981  0.0000000E+00
 30.6086  0.0000000E+00
 30.7191  0.0000000E+00
 30.8297  0.0000000E+00
 30.9402  0.0000000E+00
 31.0508  0.0000000E+00
 31.1613  0.0000000E+00
 31.2718  0.0000000E+00
 31.3824  0.0000000E+00
 31.4929  0.0000000E+00
 31.6035  0.0000000E+00
 31.714  0.0000000E+00
 31.8245  0.0000000E+00
 31.9351  0.0000000E+00
 32.0456  0.0000000E+00
 32.1562  0.0000000E+00
 32.2667  0.0000000E+00
 32.3772  0.0000000E+00
 32.4878  0.0000000E+00
 32.5983  0.0000000E+00
 32.7089  0.0000000E+00
 32.731  0.0000000E+00

File: BA_12.chi
D:\DATA\UserData\CuiTian20190403\\CWH\BA\BA_12.tif: 2-theta Scan
2-Theta Angle (Degrees)
Intensity
       1481
 0.0994862  43.1762
 0.210026  40.6638
 0.320567  40.6837
 0.431107  40.9048
 0.541647  41.1396
 0.652188  39.8602
 0.762728  40.598
 0.873268  39.9121
 0.983808  40.7745
 1.09435  40.0102
 1.20489  41.0457
 1.31543  41.5858
 1.42597  41.9923
 1.53651  42.5513
 1.64705  44.2749
 1.75759  46.7976
 1.86813  55.7004
 1.97867  189.104
 2.08921  372.782
 2.19975  621.012
 2.31029  776.932
 2.42083  905.286
 2.53137  1009.48
 2.64191  1108.32
 2.75245  1195.42
 2.86299  1273.37
 2.97353  1346.46
 3.08407  1404.99
 3.19461  1460.67
 3.30515  1506.54
 3.41569  1541.46
 3.52623  1590.13
 3.63677  1623.14
 3.74731  1647.68
 3.85785  1676.11
 3.9684  1693.36
 4.07894  1716.62
 4.18948  1728.94
 4.30002  1739.62
 4.41056  1757.86
 4.5211  1762.54
 4.63164  1766.88
 4.74218  1772.57
 4.85272  1775.57
 4.96326  1779.74
 5.0738  1780.38
 5.18434  1783.91
 5.29488  1776.31
 5.40542  1777.41
 5.51596  1773.6
 5.6265  1772.75
 5.73704  1768.75
 5.84758  1770.25
 5.95812  1765.36
 6.06866  1761.95
 6.1792  1757.7
 6.28974  1760.63
 6.40028  1755.85
 6.51082  1751.17
 6.62136  1747.2
 6.7319  1743.87
 6.84244  1739.43
 6.95298  1737.9
 7.06352  1731.85
 7.17406  1730.84
 7.2846  1725.74
 7.39514  1723.78
 7.50568  1720.01
 7.61622  1720.3
 7.72676  1716.28
 7.8373  1713.96
 7.94784  1711.33
 8.05838  1710.85
 8.16893  1710.15
 8.27946  1707.47
 8.39001  1714.78
 8.50055  1722.93
 8.61109  1729.4
 8.72163  1713.22
 8.83217  1709.61
 8.94271  1727.43
 9.05325  1730.95
 9.16379  1738.97
 9.27433  1706.89
 9.38487  1707.88
 9.49541  1750.04
 9.60595  1718.52
 9.71649  1714.69
 9.82703  1728.43
 9.93757  1744.72
 10.0481  1743.56
 10.1586  1733.77
 10.2692  1731.52
 10.3797  1735.06
 10.4903  1741.2
 10.6008  1772.7
 10.7113  1779.99
 10.8219  1854.88
 10.9324  2151.29
 11.043  2110.48
 11.1535  1929.71
 11.2641  1798.36
 11.3746  1778.82
 11.4851  1785.98
 11.5957  1804.25
 11.7062  1835.67
 11.8168  1817.75
 11.9273  1795.21
 12.0378  1791.6
 12.1484  1797.76
 12.2589  1819.62
 12.3695  1836.49
 12.48  1868.59
 12.5905  2081.8
 12.7011  2769.69
 12.8116  2085.83
 12.9222  1830.62
 13.0327  1809.46
 13.1432  1802.12
 13.2538  1795.65
 13.3643  1792.91
 13.4749  1791.63
 13.5854  1792.94
 13.6959  1794.35
 13.8065  1797.21
 13.917  1798.05
 14.0276  1802.55
 14.1381  1813.5
 14.2486  1828.74
 14.3592  1812.78
 14.4697  1810.54
 14.5803  1811.1
 14.6908  1815.94
 14.8013  1816.6
 14.9119  1819.32
 15.0224  1823.41
 15.133  1827.58
 15.2435  1826.47
 15.354  1833.28
 15.4646  1841.3
 15.5751  1849.53
 15.6857  1849.54
 15.7962  1850.9
 15.9067  1852.21
 16.0173  1846.18
 16.1278  1842.19
 16.2384  1840.42
 16.3489  1839.28
 16.4594  1839.17
 16.57  1837.05
 16.6805  1836.32
 16.7911  1833.14
 16.9016  1834.33
 17.0121  1850.91
 17.1227  1907.84
 17.2332  1887.45
 17.3438  1848.66
 17.4543  1829.44
 17.5648  1822.52
 17.6754  1821.14
 17.7859  1834.41
 17.8965  1889.63
 18.007  1939.7
 18.1175  1858.74
 18.2281  1812.52
 18.3386  1808.7
 18.4492  1774.95
 18.5597  1753.12
 18.6702  1740.87
 18.7808  1729.52
 18.8913  1719.38
 19.0019  1711.03
 19.1124  1701.21
 19.223  1695.05
 19.3335  1686.99
 19.444  1674.84
 19.5546  1661.37
 19.6651  1650.38
 19.7757  1642.79
 19.8862  1638.16
 19.9967  1632.07
 20.1073  1629.4
 20.2178  1627.54
 20.3284  1618.37
 20.4389  1608.12
 20.5494  1599.67
 20.66  1595.76
 20.7705  1596.05
 20.8811  1611.95
 20.9916  1634.8
 21.1021  1661.64
 21.2127  1652.2
 21.3232  1604.1
 21.4338  1577.75
 21.5443  1545.98
 21.6548  1531.32
 21.7654  1520.33
 21.8759  1513.55
 21.9865  1508.98
 22.097  1501.58
 22.2075  1493.88
 22.3181  1486.44
 22.4286  1476.11
 22.5392  1469.18
 22.6497  1461.35
 22.7602  1455.93
 22.8708  1449.12
 22.9813  1441.09
 23.0919  1434.25
 23.2024  1192.1
 23.3129  1055.41
 23.4235  970.844
 23.534  918.998
 23.6446  889.27
 23.7551  862.362
 23.8656  855.992
 23.9762  854.236
 24.0867  845.66
 24.1973  811.494
 24.3078  758.815
 24.4183  682.083
 24.5289  585.138
 24.6394  423.242
 24.75  111.912
 24.8605  0.0000000E+00
 24.971  0.0000000E+00
 25.0816  0.0000000E+00
 25.1921  0.0000000E+00
 25.3027  0.0000000E+00
 25.4132  0.0000000E+00
 25.5237  0.0000000E+00
 25.6343  0.0000000E+00
 25.7448  0.0000000E+00
 25.8554  0.0000000E+00
 25.9659  0.0000000E+00
 26.0764  0.0000000E+00
 26.187  0.0000000E+00
 26.2975  0.0000000E+00
 26.4081  0.0000000E+00
 26.5186  0.0000000E+00
 26.6291  0.0000000E+00
 26.7397  0.0000000E+00
 26.8502  0.0000000E+00
 26.9608  0.0000000E+00
 27.0713  0.0000000E+00
 27.1818  0.0000000E+00
 27.2924  0.0000000E+00
 27.4029  0.0000000E+00
 27.5135  0.0000000E+00
 27.624  0.0000000E+00
 27.7345  0.0000000E+00
 27.8451  0.0000000E+00
 27.9556  0.0000000E+00
 28.0662  0.0000000E+00
 28.1767  0.0000000E+00
 28.2873  0.0000000E+00
 28.3978  0.0000000E+00
 28.5083  0.0000000E+00
 28.6189  0.0000000E+00
 28.7294  0.0000000E+00
 28.84  0.0000000E+00
 28.9505  0.0000000E+00
 29.061  0.0000000E+00
 29.1716  0.0000000E+00
 29.2821  0.0000000E+00
 29.3927  0.0000000E+00
 29.5032  0.0000000E+00
 29.6137  0.0000000E+00
 29.7243  0.0000000E+00
 29.8348  0.0000000E+00
 29.9454  0.0000000E+00
 30.0559  0.0000000E+00
 30.1664  0.0000000E+00
 30.277  0.0000000E+00
 30.3875  0.0000000E+00
 30.4981  0.0000000E+00
 30.6086  0.0000000E+00
 30.7191  0.0000000E+00
 30.8297  0.0000000E+00
 30.9402  0.0000000E+00
 31.0508  0.0000000E+00
 31.1613  0.0000000E+00
 31.2718  0.0000000E+00
 31.3824  0.0000000E+00
 31.4929  0.0000000E+00
 31.6035  0.0000000E+00
 31.714  0.0000000E+00
 31.8245  0.0000000E+00
 31.9351  0.0000000E+00
 32.0456  0.0000000E+00
 32.1562  0.0000000E+00
 32.2667  0.0000000E+00
 32.3772  0.0000000E+00
 32.4878  0.0000000E+00
 32.5983  0.0000000E+00
 32.7089  0.0000000E+00
 32.731  0.0000000E+00

File: BA_13.chi
D:\DATA\UserData\CuiTian20190403\CWH\BA\BA_13.tif: 2-theta Scan
2-Theta Angle (Degrees)
Intensity
       1481
 0.0994866  41.3729
 0.210027  40.2799
 0.320568  45.0127
 0.431109  39.5721
 0.541649  39.208
 0.65219  40.2755
 0.762731  39.2644
 0.873271  40.75
 0.983812  39.8268
 1.09435  41.0985
 1.20489  40.9125
 1.31543  41.6866
 1.42597  41.9245
 1.53652  43.0248
 1.64706  44.429
 1.7576  45.8767
 1.86814  54.343
 1.97868  179.166
 2.08922  352.309
 2.19976  591.267
 2.3103  732.909
 2.42084  856.622
 2.53138  953.724
 2.64192  1044.9
 2.75246  1126.06
 2.863  1197.22
 2.97354  1264.94
 3.08408  1319.9
 3.19463  1369.31
 3.30517  1414.19
 3.41571  1450.8
 3.52625  1491.72
 3.63679  1523.19
 3.74733  1544.63
 3.85787  1569.78
 3.96841  1592.31
 4.07895  1612.84
 4.18949  1624.72
 4.30003  1635.96
 4.41057  1648.07
 4.52111  1656.09
 4.63165  1658.69
 4.74219  1665.25
 4.85274  1663.94
 4.96328  1667.74
 5.07382  1667.34
 5.18436  1668.55
 5.2949  1665.58
 5.40544  1663.99
 5.51598  1664.12
 5.62652  1660.17
 5.73706  1658.41
 5.8476  1658.73
 5.95814  1652.31
 6.06868  1654.41
 6.17922  1646.71
 6.28976  1647.51
 6.4003  1642.49
 6.51085  1640.27
 6.62139  1636.11
 6.73193  1633.57
 6.84247  1624.89
 6.95301  1626.2
 7.06355  1623.58
 7.17409  1620.51
 7.28463  1614.28
 7.39517  1612.69
 7.50571  1608.68
 7.61625  1608.71
 7.72679  1604.58
 7.83733  1603.89
 7.94787  1600.34
 8.05841  1601.84
 8.16895  1602.28
 8.2795  1599.76
 8.39004  1607.55
 8.50058  1621.11
 8.61112  1608.1
 8.72166  1600.39
 8.8322  1612.88
 8.94274  1624.95
 9.05328  1658.1
 9.16382  1603.75
 9.27436  1597.84
 9.3849  1597.96
 9.49544  1611.66
 9.60598  1609.86
 9.71652  1613.25
 9.82707  1630.96
 9.93761  1627.97
 10.0481  1630.28
 10.1587  1624.27
 10.2692  1624.36
 10.3798  1626.25
 10.4903  1636.38
 10.6008  1667.78
 10.7114  1766.28
 10.8219  2397.36
 10.9325  2110.39
 11.043  1902.43
 11.1536  1695.32
 11.2641  1674.38
 11.3746  1678.61
 11.4852  1697.31
 11.5957  1732.7
 11.7063  1733.27
 11.8168  1703.73
 11.9273  1686.82
 12.0379  1692.39
 12.1484  1708.27
 12.259  1740.3
 12.3695  1778.26
 12.48  2005.65
 12.5906  2631.41
 12.7011  1882.75
 12.8117  1707.14
 12.9222  1687.32
 13.0327  1683.16
 13.1433  1676.96
 13.2538  1673.01
 13.3644  1671.13
 13.4749  1674.5
 13.5854  1678.45
 13.696  1678.03
 13.8065  1679.7
 13.9171  1681.97
 14.0276  1694.71
 14.1382  1698.07
 14.2487  1693.54
 14.3592  1688.88
 14.4698  1690.3
 14.5803  1694.22
 14.6909  1696.38
 14.8014  1697.49
 14.9119  1700.09
 15.0225  1702.99
 15.133  1706.11
 15.2436  1711.79
 15.3541  1722.83
 15.4646  1726.59
 15.5752  1726.02
 15.6857  1729.73
 15.7963  1729.38
 15.9068  1730.02
 16.0173  1724.22
 16.1279  1722.39
 16.2384  1722.73
 16.349  1719.89
 16.4595  1717.98
 16.57  1717.69
 16.6806  1715.12
 16.7911  1718.15
 16.9017  1721.72
 17.0122  1756.04
 17.1227  1767.04
 17.2333  1730.84
 17.3438  1719.42
 17.4544  1712.06
 17.5649  1721.38
 17.6755  1748.6
 17.786  1830.61
 17.8965  1773.44
 18.0071  1713.19
 18.1176  1713.64
 18.2282  1691.14
 18.3387  1662.68
 18.4492  1645.62
 18.5598  1635.84
 18.6703  1626.13
 18.7809  1615.01
 18.8914  1610.8
 19.0019  1603.45
 19.1125  1597.2
 19.223  1592.88
 19.3336  1574.99
 19.4441  1560.29
 19.5546  1552.9
 19.6652  1547.51
 19.7757  1541.1
 19.8863  1535
 19.9968  1533.04
 20.1073  1527.95
 20.2179  1520.15
 20.3284  1509.3
 20.439  1504.38
 20.5495  1505.92
 20.66  1519.44
 20.7706  1550.16
 20.8811  1590.39
 20.9917  1582.41
 21.1022  1533.28
 21.2128  1496.37
 21.3233  1465.47
 21.4338  1449.6
 21.5444  1463.33
 21.6549  1432.52
 21.7655  1427.71
 21.876  1419.27
 21.9865  1411.71
 22.0971  1403.72
 22.2076  1393.21
 22.3182  1385.92
 22.4287  1377.89
 22.5392  1373.8
 22.6498  1368.58
 22.7603  1361.35
 22.8709  1354.18
 22.9814  1344.35
 23.0919  1340.16
 23.2025  1115.22
 23.313  988.215
 23.4236  909.944
 23.5341  861.643
 23.6446  833.222
 23.7552  809.471
 23.8657  801.666
 23.9763  797.72
 24.0868  790.646
 24.1974  759.896
 24.3079  709.137
 24.4184  637.451
 24.529  548.068
 24.6395  396.939
 24.7501  105.072
 24.8606  0.0000000E+00
 24.9711  0.0000000E+00
 25.0817  0.0000000E+00
 25.1922  0.0000000E+00
 25.3028  0.0000000E+00
 25.4133  0.0000000E+00
 25.5238  0.0000000E+00
 25.6344  0.0000000E+00
 25.7449  0.0000000E+00
 25.8555  0.0000000E+00
 25.966  0.0000000E+00
 26.0765  0.0000000E+00
 26.1871  0.0000000E+00
 26.2976  0.0000000E+00
 26.4082  0.0000000E+00
 26.5187  0.0000000E+00
 26.6292  0.0000000E+00
 26.7398  0.0000000E+00
 26.8503  0.0000000E+00
 26.9609  0.0000000E+00
 27.0714  0.0000000E+00
 27.182  0.0000000E+00
 27.2925  0.0000000E+00
 27.403  0.0000000E+00
 27.5136  0.0000000E+00
 27.6241  0.0000000E+00
 27.7347  0.0000000E+00
 27.8452  0.0000000E+00
 27.9557  0.0000000E+00
 28.0663  0.0000000E+00
 28.1768  0.0000000E+00
 28.2874  0.0000000E+00
 28.3979  0.0000000E+00
 28.5084  0.0000000E+00
 28.619  0.0000000E+00
 28.7295  0.0000000E+00
 28.8401  0.0000000E+00
 28.9506  0.0000000E+00
 29.0611  0.0000000E+00
 29.1717  0.0000000E+00
 29.2822  0.0000000E+00
 29.3928  0.0000000E+00
 29.5033  0.0000000E+00
 29.6138  0.0000000E+00
 29.7244  0.0000000E+00
 29.8349  0.0000000E+00
 29.9455  0.0000000E+00
 30.056  0.0000000E+00
 30.1665  0.0000000E+00
 30.2771  0.0000000E+00
 30.3876  0.0000000E+00
 30.4982  0.0000000E+00
 30.6087  0.0000000E+00
 30.7192  0.0000000E+00
 30.8298  0.0000000E+00
 30.9403  0.0000000E+00
 31.0509  0.0000000E+00
 31.1614  0.0000000E+00
 31.272  0.0000000E+00
 31.3825  0.0000000E+00
 31.493  0.0000000E+00
 31.6036  0.0000000E+00
 31.7141  0.0000000E+00
 31.8247  0.0000000E+00
 31.9352  0.0000000E+00
 32.0457  0.0000000E+00
 32.1563  0.0000000E+00
 32.2668  0.0000000E+00
 32.3774  0.0000000E+00
 32.4879  0.0000000E+00
 32.5984  0.0000000E+00
 32.709  0.0000000E+00
 32.7311  0.0000000E+00