Folder: BaH12_Nature_Communications_2021 (part 5)

File: BA_19.chi
D:\DATA\UserData\CuiTian20190403\CWH\BA\BA_19.tif: 2-theta Scan
2-Theta Angle (Degrees)
Intensity
       1481
 0.0994868  44.0166
 0.210028  43.1318
 0.320568  43.1132
 0.431109  42.6998
 0.54165  42.296
 0.652191  43.7874
 0.762732  43.0406
 0.873273  43.4993
 0.983814  43.4307
 1.09435  44.2658
 1.2049  44.6735
 1.31544  45.394
 1.42598  47.8729
 1.53652  46.972
 1.64706  48.5906
 1.7576  51.2718
 1.86814  58.6232
 1.97868  196.992
 2.08922  400.936
 2.19976  668.016
 2.3103  852.143
 2.42084  1012.75
 2.53139  1154.6
 2.64193  1273.97
 2.75247  1380.66
 2.86301  1483.85
 2.97355  1571.46
 3.08409  1647.97
 3.19463  1719.87
 3.30517  1776.31
 3.41571  1828.62
 3.52625  1882.62
 3.63679  1928.32
 3.74734  1961.09
 3.85788  1995.24
 3.96842  2031.95
 4.07896  2058.68
 4.1895  2071.63
 4.30004  2086.06
 4.41058  2100
 4.52112  2112.64
 4.63166  2119.39
 4.7422  2129.9
 4.85274  2130.87
 4.96328  2135.1
 5.07383  2142.12
 5.18437  2135.54
 5.29491  2142.61
 5.40545  2136.79
 5.51599  2134.14
 5.62653  2139.7
 5.73707  2132.16
 5.84761  2132.76
 5.95815  2126.54
 6.06869  2120.23
 6.17923  2119.42
 6.28978  2118.71
 6.40032  2115.98
 6.51086  2110.12
 6.6214  2110.27
 6.73194  2103.33
 6.84248  2101.34
 6.95302  2096.94
 7.06356  2093.63
 7.1741  2089.14
 7.28464  2081.61
 7.39518  2081.07
 7.50572  2076.14
 7.61627  2070.3
 7.72681  2071.52
 7.83735  2070.88
 7.94789  2072.42
 8.05843  2073.73
 8.16897  2080.7
 8.27951  2092.34
 8.39005  2120.65
 8.50059  2144.8
 8.61113  2129.17
 8.72167  2118
 8.83222  2118.22
 8.94276  2111.69
 9.0533  2101.35
 9.16384  2094.86
 9.27438  2101.33
 9.38492  2125.86
 9.49546  2138.81
 9.606  2154.75
 9.71654  2198.3
 9.82708  2187.73
 9.93762  2166.46
 10.0482  2175.69
 10.1587  2180.47
 10.2692  2185.6
 10.3798  2216.16
 10.4903  2266.91
 10.6009  2333.19
 10.7114  2375.07
 10.822  2364.94
 10.9325  2376.62
 11.043  2362.78
 11.1536  2324.35
 11.2641  2306.09
 11.3747  2296.36
 11.4852  2282.29
 11.5957  2270.06
 11.7063  2253.11
 11.8168  2228.73
 11.9274  2215.61
 12.0379  2197.74
 12.1484  2187.09
 12.259  2178.52
 12.3695  2178.92
 12.4801  2176.36
 12.5906  2167.97
 12.7011  2165.57
 12.8117  2166.85
 12.9222  2165.58
 13.0328  2171.15
 13.1433  2173.64
 13.2538  2183.21
 13.3644  2194.5
 13.4749  2187.02
 13.5855  2191.62
 13.696  2197.36
 13.8066  2200.03
 13.9171  2195.97
 14.0276  2199.73
 14.1382  2207.59
 14.2487  2217.12
 14.3593  2216.68
 14.4698  2220.22
 14.5803  2218.34
 14.6909  2221.57
 14.8014  2220.36
 14.912  2225.26
 15.0225  2233.13
 15.133  2240.49
 15.2436  2249.41
 15.3541  2261.11
 15.4647  2265.73
 15.5752  2270.35
 15.6857  2269.08
 15.7963  2269.52
 15.9068  2271.68
 16.0174  2277.54
 16.1279  2278.33
 16.2385  2281.37
 16.349  2283.24
 16.4595  2270.1
 16.5701  2264.33
 16.6806  2261.17
 16.7912  2255.9
 16.9017  2253.16
 17.0122  2256.59
 17.1228  2256.3
 17.2333  2247.89
 17.3439  2244.21
 17.4544  2241.77
 17.5649  2231.39
 17.6755  2222.38
 17.786  2216.8
 17.8966  2215.16
 18.0071  2205.88
 18.1176  2194.77
 18.2282  2191.77
 18.3387  2183.45
 18.4493  2173.94
 18.5598  2173.23
 18.6704  2172.09
 18.7809  2167.67
 18.8914  2151.5
 19.002  2128.42
 19.1125  2110.19
 19.2231  2095.75
 19.3336  2078
 19.4441  2065.47
 19.5547  2051.43
 19.6652  2037.7
 19.7758  2026.32
 19.8863  2015.68
 19.9968  2004.64
 20.1074  1995.49
 20.2179  1985.56
 20.3285  1974.03
 20.439  1962.85
 20.5495  1950.05
 20.6601  1939.17
 20.7706  1928.51
 20.8812  1919.07
 20.9917  1911
 21.1023  1903.15
 21.2128  1895.51
 21.3233  1889.18
 21.4339  1880.51
 21.5444  1871.55
 21.655  1862.26
 21.7655  1854.19
 21.876  1843.53
 21.9866  1836.27
 22.0971  1830.51
 22.2077  1823
 22.3182  1817.44
 22.4287  1808.4
 22.5393  1800.11
 22.6498  1790.48
 22.7604  1784.28
 22.8709  1776.73
 22.9814  1767.43
 23.092  1761.58
 23.2025  1470.88
 23.3131  1301.2
 23.4236  1197.26
 23.5341  1133.5
 23.6447  1093.33
 23.7552  1060.35
 23.8658  1049.88
 23.9763  1046.31
 24.0869  1038.35
 24.1974  998.074
 24.3079  930.585
 24.4185  837.927
 24.529  721.857
 24.6396  522.834
 24.7501  138.319
 24.8606  0.0000000E+00
 24.9712  0.0000000E+00
 25.0817  0.0000000E+00
 25.1923  0.0000000E+00
 25.3028  0.0000000E+00
 25.4133  0.0000000E+00
 25.5239  0.0000000E+00
 25.6344  0.0000000E+00
 25.745  0.0000000E+00
 25.8555  0.0000000E+00
 25.966  0.0000000E+00
 26.0766  0.0000000E+00
 26.1871  0.0000000E+00
 26.2977  0.0000000E+00
 26.4082  0.0000000E+00
 26.5188  0.0000000E+00
 26.6293  0.0000000E+00
 26.7398  0.0000000E+00
 26.8504  0.0000000E+00
 26.9609  0.0000000E+00
 27.0715  0.0000000E+00
 27.182  0.0000000E+00
 27.2925  0.0000000E+00
 27.4031  0.0000000E+00
 27.5136  0.0000000E+00
 27.6242  0.0000000E+00
 27.7347  0.0000000E+00
 27.8452  0.0000000E+00
 27.9558  0.0000000E+00
 28.0663  0.0000000E+00
 28.1769  0.0000000E+00
 28.2874  0.0000000E+00
 28.3979  0.0000000E+00
 28.5085  0.0000000E+00
 28.619  0.0000000E+00
 28.7296  0.0000000E+00
 28.8401  0.0000000E+00
 28.9507  0.0000000E+00
 29.0612  0.0000000E+00
 29.1717  0.0000000E+00
 29.2823  0.0000000E+00
 29.3928  0.0000000E+00
 29.5034  0.0000000E+00
 29.6139  0.0000000E+00
 29.7244  0.0000000E+00
 29.835  0.0000000E+00
 29.9455  0.0000000E+00
 30.0561  0.0000000E+00
 30.1666  0.0000000E+00
 30.2771  0.0000000E+00
 30.3877  0.0000000E+00
 30.4982  0.0000000E+00
 30.6088  0.0000000E+00
 30.7193  0.0000000E+00
 30.8298  0.0000000E+00
 30.9404  0.0000000E+00
 31.0509  0.0000000E+00
 31.1615  0.0000000E+00
 31.272  0.0000000E+00
 31.3826  0.0000000E+00
 31.4931  0.0000000E+00
 31.6036  0.0000000E+00
 31.7142  0.0000000E+00
 31.8247  0.0000000E+00
 31.9353  0.0000000E+00
 32.0458  0.0000000E+00
 32.1563  0.0000000E+00
 32.2669  0.0000000E+00
 32.3774  0.0000000E+00
 32.488  0.0000000E+00
 32.5985  0.0000000E+00
 32.709  0.0000000E+00
 32.7312  0.0000000E+00