Folder: BaH12_Nature_Communications_2021 (part 4)

File: BA_14.chi
D:\DATA\UserData\CuiTian20190403\CWH\BA\BA_14.tif: 2-theta Scan
2-Theta Angle (Degrees)
Intensity
       1481
 0.0994866  41.9502
 0.210027  39.7487
 0.320568  39.8528
 0.431109  40.2586
 0.541649  39.5288
 0.65219  39.9138
 0.762731  39.0643
 0.873271  40.4274
 0.983812  40.481
 1.09435  40.8952
 1.20489  40.6283
 1.31543  41.3894
 1.42597  43.0232
 1.53652  42.7755
 1.64706  44.3409
 1.7576  46.3039
 1.86814  53.5815
 1.97868  178.312
 2.08922  350.949
 2.19976  581.89
 2.3103  725.306
 2.42084  840.077
 2.53138  947.87
 2.64192  1032.29
 2.75246  1114.54
 2.863  1186.36
 2.97354  1249.82
 3.08408  1301.24
 3.19463  1357.18
 3.30517  1393.8
 3.41571  1433.64
 3.52625  1468.48
 3.63679  1501.6
 3.74733  1524.84
 3.85787  1551.08
 3.96841  1571.22
 4.07895  1588.13
 4.18949  1605.1
 4.30003  1611.58
 4.41057  1625.49
 4.52111  1631.44
 4.63165  1634.62
 4.74219  1638.48
 4.85274  1641.24
 4.96328  1642.66
 5.07382  1645.84
 5.18436  1647.53
 5.2949  1641.83
 5.40544  1645.22
 5.51598  1641.09
 5.62652  1637.17
 5.73706  1638.59
 5.8476  1633.63
 5.95814  1631.29
 6.06868  1629.31
 6.17922  1625.08
 6.28976  1625.99
 6.4003  1617.42
 6.51085  1618.44
 6.62139  1615.2
 6.73193  1609.37
 6.84247  1606.88
 6.95301  1603.24
 7.06355  1600.98
 7.17409  1597.32
 7.28463  1595.36
 7.39517  1591.8
 7.50571  1588.51
 7.61625  1586.28
 7.72679  1584.22
 7.83733  1581.96
 7.94787  1582.36
 8.05841  1578.73
 8.16895  1581.71
 8.2795  1582.81
 8.39004  1600.83
 8.50058  1593.03
 8.61112  1582.2
 8.72166  1585.55
 8.8322  1593.3
 8.94274  1616.45
 9.05328  1585.61
 9.16382  1578.96
 9.27436  1576.75
 9.3849  1579.89
 9.49544  1584.35
 9.60598  1593.46
 9.71652  1601.11
 9.82707  1599.86
 9.93761  1605.37
 10.0481  1608.47
 10.1587  1601.46
 10.2692  1607.13
 10.3798  1617.35
 10.4903  1643.91
 10.6008  1735.68
 10.7114  1918.16
 10.8219  1951.05
 10.9325  1842.35
 11.043  1680.79
 11.1536  1654.35
 11.2641  1656.92
 11.3746  1663.2
 11.4852  1676.8
 11.5957  1703.78
 11.7063  1697.79
 11.8168  1679.93
 11.9273  1681.6
 12.0379  1677.27
 12.1484  1692.4
 12.259  1746.92
 12.3695  1911.62
 12.48  2128.08
 12.5906  1801.14
 12.7011  1683.51
 12.8117  1665.85
 12.9222  1658.46
 13.0327  1653
 13.1433  1648.91
 13.2538  1645.65
 13.3644  1647.67
 13.4749  1649.41
 13.5854  1651.36
 13.696  1654.46
 13.8065  1658.8
 13.9171  1666.6
 14.0276  1662.59
 14.1382  1665.95
 14.2487  1664.76
 14.3592  1663.75
 14.4698  1670.85
 14.5803  1669.88
 14.6909  1673.09
 14.8014  1677.15
 14.9119  1677.28
 15.0225  1682.14
 15.133  1684.98
 15.2436  1694.27
 15.3541  1695.84
 15.4646  1696.91
 15.5752  1701.73
 15.6857  1701.77
 15.7963  1699.14
 15.9068  1705.12
 16.0173  1703.31
 16.1279  1700.07
 16.2384  1697.71
 16.349  1697.69
 16.4595  1696.48
 16.57  1694.12
 16.6806  1695.22
 16.7911  1699.14
 16.9017  1727.08
 17.0122  1761.25
 17.1227  1721.2
 17.2333  1695.62
 17.3438  1695.74
 17.4544  1712.61
 17.5649  1747.44
 17.6755  1749.04
 17.786  1695.7
 17.8965  1682.18
 18.0071  1670.92
 18.1176  1653.42
 18.2282  1641.3
 18.3387  1629.18
 18.4492  1619.16
 18.5598  1610.11
 18.6703  1600.98
 18.7809  1593.4
 18.8914  1592.83
 19.0019  1588.38
 19.1125  1572.11
 19.223  1558.55
 19.3336  1549.27
 19.4441  1540.37
 19.5546  1537.72
 19.6652  1530.3
 19.7757  1522.53
 19.8863  1519.34
 19.9968  1512.48
 20.1073  1503.27
 20.2179  1498.06
 20.3284  1497.59
 20.439  1508.48
 20.5495  1529.15
 20.66  1542.29
 20.7706  1527.46
 20.8811  1508.47
 20.9917  1485.05
 21.1022  1455.75
 21.2128  1442.61
 21.3233  1435.09
 21.4338  1428.28
 21.5444  1422.08
 21.6549  1414.47
 21.7655  1405.17
 21.876  1391.43
 21.9865  1377.45
 22.0971  1370.66
 22.2076  1364.39
 22.3182  1361.56
 22.4287  1354.44
 22.5392  1347.37
 22.6498  1335.82
 22.7603  1327.31
 22.8709  1319.38
 22.9814  1316.93
 23.0919  1314.27
 23.2025  1093.95
 23.313  968.873
 23.4236  892.615
 23.5341  839.84
 23.6446  807.321
 23.7552  779.009
 23.8657  769.884
 23.9763  764.218
 24.0868  760.763
 24.1974  736.06
 24.3079  698.399
 24.4184  636.83
 24.529  550.577
 24.6395  410.549
 24.7501  127.397
 24.8606  22.626
 24.9711  21.3098
 25.0817  19.2874
 25.1922  17.8586
 25.3028  17.0925
 25.4133  16.9067
 25.5238  16.9505
 25.6344  17.1571
 25.7449  18.3246
 25.8555  18.9272
 25.966  19.1596
 26.0765  19.4391
 26.1871  20.0477
 26.2976  21.7217
 26.4082  22.7053
 26.5187  22.8256
 26.6292  22.8594
 26.7398  23.5004
 26.8503  23.1392
 26.9609  23.0893
 27.0714  23.8346
 27.182  24.3161
 27.2925  24.2031
 27.403  22.5913
 27.5136  21.8971
 27.6241  24.0012
 27.7347  24.1552
 27.8452  23.6172
 27.9557  24.1032
 28.0663  26.0206
 28.1768  28.6442
 28.2874  31.3018
 28.3979  32.72
 28.5084  32.5
 28.619  31.1792
 28.7295  30.0304
 28.8401  30.3669
 28.9506  32.8962
 29.0611  36.841
 29.1717  41.8029
 29.2822  43.9082
 29.3928  45.1603
 29.5033  44.6753
 29.6138  46.2474
 29.7244  53.098
 29.8349  56.8788
 29.9455  59.6164
 30.056  62.8319
 30.1665  66.238
 30.2771  67.6565
 30.3876  70.6384
 30.4982  75.3833
 30.6087  80.4593
 30.7192  81.1046
 30.8298  84.1228
 30.9403  87.409
 31.0509  97.4768
 31.1614  103.772
 31.272  117.348
 31.3825  116.858
 31.493  120.529
 31.6036  132.1
 31.7141  135.813
 31.8247  135.954
 31.9352  141.932
 32.0457  141.052
 32.1563  130.703
 32.2668  120.713
 32.3774  97.6763
 32.4879  114.614
 32.5984  166.801
 32.709  234.318
 32.7311  266.559

File: BA_15.chi
D:\DATA\UserData\CuiTian20190403\CWH\BA\BA_15.tif: 2-theta Scan
2-Theta Angle (Degrees)
Intensity
       1481
 0.0994866  38.722
 0.210027  39.2596
 0.320568  39.1431
 0.431109  41.0174
 0.541649  39.4941
 0.65219  39.3949
 0.762731  38.8109
 0.873271  40.5303
 0.983812  40.542
 1.09435  39.168
 1.20489  40.8389
 1.31543  41.1438
 1.42597  41.791
 1.53652  42.364
 1.64706  43.6716
 1.7576  45.222
 1.86814  53.048
 1.97868  173.465
 2.08922  338.391
 2.19976  567.138
 2.3103  703.237
 2.42084  819.314
 2.53138  915.536
 2.64192  1004.07
 2.75246  1078.3
 2.863  1151.94
 2.97354  1213.78
 3.08408  1266.67
 3.19463  1311.22
 3.30517  1355.34
 3.41571  1387.7
 3.52625  1426.37
 3.63679  1461.32
 3.74733  1480.5
 3.85787  1502.62
 3.96841  1526.07
 4.07895  1544.1
 4.18949  1552.48
 4.30003  1562.54
 4.41057  1577.75
 4.52111  1586.28
 4.63165  1589.44
 4.74219  1592.84
 4.85274  1592.44
 4.96328  1596.91
 5.07382  1599.89
 5.18436  1598.03
 5.2949  1594.68
 5.40544  1594.25
 5.51598  1590.83
 5.62652  1594.03
 5.73706  1588.89
 5.8476  1584.92
 5.95814  1584.37
 6.06868  1582.37
 6.17922  1579.26
 6.28976  1578.19
 6.4003  1572.73
 6.51085  1568.39
 6.62139  1566.53
 6.73193  1563.1
 6.84247  1559.08
 6.95301  1558.58
 7.06355  1556.94
 7.17409  1551.92
 7.28463  1549.04
 7.39517  1544.24
 7.50571  1543.39
 7.61625  1541.95
 7.72679  1537.58
 7.83733  1538.25
 7.94787  1535.28
 8.05841  1534.15
 8.16895  1536.44
 8.2795  1548.12
 8.39004  1560.05
 8.50058  1537.95
 8.61112  1536.33
 8.72166  1543.67
 8.8322  1562.55
 8.94274  1543.68
 9.05328  1532.37
 9.16382  1532.35
 9.27436  1533.41
 9.3849  1534.85
 9.49544  1539.35
 9.60598  1554.61
 9.71652  1552.89
 9.82707  1551.42
 9.93761  1572.81
 10.0481  1560.65
 10.1587  1560.47
 10.2692  1570.59
 10.3798  1596.47
 10.4903  1671.43
 10.6008  1823.82
 10.7114  1879.58
 10.8219  1769.69
 10.9325  1637.18
 11.043  1610.09
 11.1536  1613.04
 11.2641  1614.08
 11.3746  1618.83
 11.4852  1653.29
 11.5957  1660.14
 11.7063  1636.43
 11.8168  1630.11
 11.9273  1614.74
 12.0379  1618.03
 12.1484  1648.44
 12.259  1725.16
 12.3695  1778.15
 12.48  1681.69
 12.5906  1621.18
 12.7011  1609.92
 12.8117  1604.4
 12.9222  1598.11
 13.0327  1595.4
 13.1433  1593.54
 13.2538  1594.81
 13.3644  1595.29
 13.4749  1600.17
 13.5854  1599.66
 13.696  1606.01
 13.8065  1615.43
 13.9171  1611.7
 14.0276  1610.02
 14.1382  1610.46
 14.2487  1613.42
 14.3592  1615.32
 14.4698  1617.79
 14.5803  1619.52
 14.6909  1623.44
 14.8014  1624.3
 14.9119  1627.54
 15.0225  1633.8
 15.133  1641.92
 15.2436  1645.26
 15.3541  1643.6
 15.4646  1646.23
 15.5752  1646.97
 15.6857  1647.49
 15.7963  1650.39
 15.9068  1655.02
 16.0173  1651.88
 16.1279  1650.45
 16.2384  1649.09
 16.349  1647.34
 16.4595  1646.78
 16.57  1645.59
 16.6806  1651.58
 16.7911  1662.53
 16.9017  1710.33
 17.0122  1685.22
 17.1227  1656.62
 17.2333  1658.73
 17.3438  1693.33
 17.4544  1736.05
 17.5649  1687.09
 17.6755  1649.19
 17.786  1638.17
 17.8965  1622.03
 18.0071  1608.12
 18.1176  1600.25
 18.2282  1588.6
 18.3387  1578.27
 18.4492  1570.91
 18.5598  1564.35
 18.6703  1555.84
 18.7809  1553.81
 18.8914  1544.5
 19.0019  1531.59
 19.1125  1522.23
 19.223  1512.2
 19.3336  1505.93
 19.4441  1500.41
 19.5546  1492.13
 19.6652  1485.94
 19.7757  1481.58
 19.8863  1474.18
 19.9968  1467.9
 20.1073  1465.39
 20.2179  1471.67
 20.3284  1490.39
 20.439  1507.83
 20.5495  1495.1
 20.66  1473.37
 20.7706  1451.81
 20.8811  1431.24
 20.9917  1415.79
 21.1022  1406.63
 21.2128  1403.66
 21.3233  1401.13
 21.4338  1391.04
 21.5444  1383.89
 21.6549  1375.19
 21.7655  1363.6
 21.876  1352.45
 21.9865  1344.46
 22.0971  1339.39
 22.2076  1333.78
 22.3182  1328.52
 22.4287  1321.35
 22.5392  1315.28
 22.6498  1307.5
 22.7603  1304.36
 22.8709  1297.18
 22.9814  1290.94
 23.0919  1285.65
 23.2025  1071.89
 23.313  948.633
 23.4236  872.167
 23.5341  824.638
 23.6446  796.49
 23.7552  774.071
 23.8657  766.447
 23.9763  765.785
 24.0868  758.559
 24.1974  726.467
 24.3079  676.72
 24.4184  609.857
 24.529  525.486
 24.6395  381.249
 24.7501  101.031
 24.8606  0.0000000E+00
 24.9711  0.0000000E+00
 25.0817  0.0000000E+00
 25.1922  0.0000000E+00
 25.3028  0.0000000E+00
 25.4133  0.0000000E+00
 25.5238  0.0000000E+00
 25.6344  0.0000000E+00
 25.7449  0.0000000E+00
 25.8555  0.0000000E+00
 25.966  0.0000000E+00
 26.0765  0.0000000E+00
 26.1871  0.0000000E+00
 26.2976  0.0000000E+00
 26.4082  0.0000000E+00
 26.5187  0.0000000E+00
 26.6292  0.0000000E+00
 26.7398  0.0000000E+00
 26.8503  0.0000000E+00
 26.9609  0.0000000E+00
 27.0714  0.0000000E+00
 27.182  0.0000000E+00
 27.2925  0.0000000E+00
 27.403  0.0000000E+00
 27.5136  0.0000000E+00
 27.6241  0.0000000E+00
 27.7347  0.0000000E+00
 27.8452  0.0000000E+00
 27.9557  0.0000000E+00
 28.0663  0.0000000E+00
 28.1768  0.0000000E+00
 28.2874  0.0000000E+00
 28.3979  0.0000000E+00
 28.5084  0.0000000E+00
 28.619  0.0000000E+00
 28.7295  0.0000000E+00
 28.8401  0.0000000E+00
 28.9506  0.0000000E+00
 29.0611  0.0000000E+00
 29.1717  0.0000000E+00
 29.2822  0.0000000E+00
 29.3928  0.0000000E+00
 29.5033  0.0000000E+00
 29.6138  0.0000000E+00
 29.7244  0.0000000E+00
 29.8349  0.0000000E+00
 29.9455  0.0000000E+00
 30.056  0.0000000E+00
 30.1665  0.0000000E+00
 30.2771  0.0000000E+00
 30.3876  0.0000000E+00
 30.4982  0.0000000E+00
 30.6087  0.0000000E+00
 30.7192  0.0000000E+00
 30.8298  0.0000000E+00
 30.9403  0.0000000E+00
 31.0509  0.0000000E+00
 31.1614  0.0000000E+00
 31.272  0.0000000E+00
 31.3825  0.0000000E+00
 31.493  0.0000000E+00
 31.6036  0.0000000E+00
 31.7141  0.0000000E+00
 31.8247  0.0000000E+00
 31.9352  0.0000000E+00
 32.0457  0.0000000E+00
 32.1563  0.0000000E+00
 32.2668  0.0000000E+00
 32.3774  0.0000000E+00
 32.4879  0.0000000E+00
 32.5984  0.0000000E+00
 32.709  0.0000000E+00
 32.7311  0.0000000E+00

File: BA_16.chi
D:\DATA\UserData\CuiTian20190403\CWH\BA\BA_16.tif: 2-theta Scan
2-Theta Angle (Degrees)
Intensity
       1481
 0.0994866  40.3711
 0.210027  42.4228
 0.320568  41.5413
 0.431109  42.6142
 0.541649  41.2924
 0.65219  41.4299
 0.762731  41.8677
 0.873271  42.233
 0.983812  43.5361
 1.09435  42.5028
 1.20489  42.9239
 1.31543  43.955
 1.42597  44.7292
 1.53652  44.218
 1.64706  46.0324
 1.7576  48.5007
 1.86814  57.2138
 1.97868  185.64
 2.08922  371.859
 2.19976  627.738
 2.3103  795.372
 2.42084  938.118
 2.53138  1054.23
 2.64192  1162.9
 2.75246  1259.47
 2.863  1347.73
 2.97354  1429.86
 3.08408  1492.19
 3.19463  1553.66
 3.30517  1601.17
 3.41571  1647.06
 3.52625  1695.28
 3.63679  1734.85
 3.74733  1762.39
 3.85787  1792.12
 3.96841  1816.32
 4.07895  1840.43
 4.18949  1857.3
 4.30003  1872.13
 4.41057  1887.37
 4.52111  1893.64
 4.63165  1904.03
 4.74219  1910.52
 4.85274  1914.92
 4.96328  1916.86
 5.07382  1921.39
 5.18436  1920.3
 5.2949  1919.78
 5.40544  1917.52
 5.51598  1915.26
 5.62652  1913.02
 5.73706  1910.76
 5.8476  1912.54
 5.95814  1904.01
 6.06868  1906.28
 6.17922  1902.88
 6.28976  1903.33
 6.4003  1901.88
 6.51085  1895.63
 6.62139  1891.67
 6.73193  1887.15
 6.84247  1884.56
 6.95301  1881.29
 7.06355  1881.65
 7.17409  1876.86
 7.28463  1870.67
 7.39517  1871.56
 7.50571  1866.04
 7.61625  1865.07
 7.72679  1861.38
 7.83733  1859.53
 7.94787  1862.56
 8.05841  1867.27
 8.16895  1874.92
 8.2795  1880.74
 8.39004  1866.04
 8.50058  1861.76
 8.61112  1866.57
 8.72166  1867.56
 8.8322  1864.74
 8.94274  1859.31
 9.05328  1859.44
 9.16382  1864.21
 9.27436  1868.71
 9.3849  1877.08
 9.49544  1887.46
 9.60598  1886.14
 9.71652  1889.53
 9.82707  1904.74
 9.93761  1908.16
 10.0481  1912.29
 10.1587  1925.08
 10.2692  1967.27
 10.3798  2040.02
 10.4903  2127.04
 10.6008  2099.47
 10.7114  2042.65
 10.8219  1985.77
 10.9325  1974.12
 11.043  1984.48
 11.1536  1993.51
 11.2641  1993.91
 11.3746  2012.33
 11.4852  2034.82
 11.5957  2040.41
 11.7063  2005.28
 11.8168  1988.13
 11.9273  1996.92
 12.0379  2028.37
 12.1484  2091.84
 12.259  2102.22
 12.3695  2038.54
 12.48  2001.23
 12.5906  1978.97
 12.7011  1965.11
 12.8117  1955.78
 12.9222  1951.2
 13.0327  1948.48
 13.1433  1945.44
 13.2538  1946.71
 13.3644  1947.37
 13.4749  1952.51
 13.5854  1957.21
 13.696  1958.95
 13.8065  1959.08
 13.9171  1962.95
 14.0276  1965.57
 14.1382  1967.25
 14.2487  1969.44
 14.3592  1971.62
 14.4698  1974.89
 14.5803  1977.59
 14.6909  1982.81
 14.8014  1987.58
 14.9119  1993.68
 15.0225  2001.24
 15.133  2003.69
 15.2436  2001.99
 15.3541  2001
 15.4646  2003.97
 15.5752  2008.8
 15.6857  2011.85
 15.7963  2013.27
 15.9068  2014.67
 16.0173  2017.31
 16.1279  2016.36
 16.2384  2017.68
 16.349  2014.33
 16.4595  2014.82
 16.57  2022.48
 16.6806  2037.27
 16.7911  2097.38
 16.9017  2085.01
 17.0122  2038.34
 17.1227  2043.3
 17.2333  2048.88
 17.3438  2031.47
 17.4544  2009.61
 17.5649  2000.13
 17.6755  1988.09
 17.786  1976.84
 17.8965  1971.75
 18.0071  1962.3
 18.1176  1949.41
 18.2282  1938.79
 18.3387  1930.57
 18.4492  1920.94
 18.5598  1910.91
 18.6703  1899.92
 18.7809  1887.48
 18.8914  1877.56
 19.0019  1870.17
 19.1125  1858.93
 19.223  1849.31
 19.3336  1842.02
 19.4441  1834.37
 19.5546  1825.73
 19.6652  1818.31
 19.7757  1813.83
 19.8863  1811.59
 19.9968  1813.85
 20.1073  1819.41
 20.2179  1818.51
 20.3284  1809.11
 20.439  1792.63
 20.5495  1778.3
 20.66  1760.82
 20.7706  1744.94
 20.8811  1734.25
 20.9917  1724.74
 21.1022  1717.1
 21.2128  1705.64
 21.3233  1695.32
 21.4338  1686.19
 21.5444  1675.93
 21.6549  1665.77
 21.7655  1654.22
 21.876  1646.26
 21.9865  1638.43
 22.0971  1630.93
 22.2076  1621.96
 22.3182  1615.47
 22.4287  1609.1
 22.5392  1602.2
 22.6498  1594.32
 22.7603  1587.92
 22.8709  1581.44
 22.9814  1572.6
 23.0919  1565.94
 23.2025  1301.42
 23.313  1152.78
 23.4236  1061.19
 23.5341  1003.18
 23.6446  971.235
 23.7552  941.979
 23.8657  935.087
 23.9763  932.604
 24.0868  922.731
 24.1974  885.254
 24.3079  825.546
 24.4184  742.456
 24.529  640.151
 24.6395  463.161
 24.7501  122.175
 24.8606  0.0000000E+00
 24.9711  0.0000000E+00
 25.0817  0.0000000E+00
 25.1922  0.0000000E+00
 25.3028  0.0000000E+00
 25.4133  0.0000000E+00
 25.5238  0.0000000E+00
 25.6344  0.0000000E+00
 25.7449  0.0000000E+00
 25.8555  0.0000000E+00
 25.966  0.0000000E+00
 26.0765  0.0000000E+00
 26.1871  0.0000000E+00
 26.2976  0.0000000E+00
 26.4082  0.0000000E+00
 26.5187  0.0000000E+00
 26.6292  0.0000000E+00
 26.7398  0.0000000E+00
 26.8503  0.0000000E+00
 26.9609  0.0000000E+00
 27.0714  0.0000000E+00
 27.182  0.0000000E+00
 27.2925  0.0000000E+00
 27.403  0.0000000E+00
 27.5136  0.0000000E+00
 27.6241  0.0000000E+00
 27.7347  0.0000000E+00
 27.8452  0.0000000E+00
 27.9557  0.0000000E+00
 28.0663  0.0000000E+00
 28.1768  0.0000000E+00
 28.2874  0.0000000E+00
 28.3979  0.0000000E+00
 28.5084  0.0000000E+00
 28.619  0.0000000E+00
 28.7295  0.0000000E+00
 28.8401  0.0000000E+00
 28.9506  0.0000000E+00
 29.0611  0.0000000E+00
 29.1717  0.0000000E+00
 29.2822  0.0000000E+00
 29.3928  0.0000000E+00
 29.5033  0.0000000E+00
 29.6138  0.0000000E+00
 29.7244  0.0000000E+00
 29.8349  0.0000000E+00
 29.9455  0.0000000E+00
 30.056  0.0000000E+00
 30.1665  0.0000000E+00
 30.2771  0.0000000E+00
 30.3876  0.0000000E+00
 30.4982  0.0000000E+00
 30.6087  0.0000000E+00
 30.7192  0.0000000E+00
 30.8298  0.0000000E+00
 30.9403  0.0000000E+00
 31.0509  0.0000000E+00
 31.1614  0.0000000E+00
 31.272  0.0000000E+00
 31.3825  0.0000000E+00
 31.493  0.0000000E+00
 31.6036  0.0000000E+00
 31.7141  0.0000000E+00
 31.8247  0.0000000E+00
 31.9352  0.0000000E+00
 32.0457  0.0000000E+00
 32.1563  0.0000000E+00
 32.2668  0.0000000E+00
 32.3774  0.0000000E+00
 32.4879  0.0000000E+00
 32.5984  0.0000000E+00
 32.709  0.0000000E+00
 32.7311  0.0000000E+00

File: BA_17.chi
D:\DATA\UserData\CuiTian20190403\CWH\BA\BA_17.tif: 2-theta Scan
2-Theta Angle (Degrees)
Intensity
       1481
 0.0994866  42.1655
 0.210027  41.0073
 0.320568  40.0182
 0.431109  41.2959
 0.541649  40.7861
 0.65219  41.7469
 0.762731  41.6783
 0.873271  41.888
 0.983812  42.89
 1.09435  42.9668
 1.20489  44.6578
 1.31543  45.1138
 1.42597  46.385
 1.53652  46.5607
 1.64706  49.8005
 1.7576  52.7626
 1.86814  60.1416
 1.97868  188.191
 2.08922  373.376
 2.19976  623.221
 2.3103  785.192
 2.42084  923.841
 2.53138  1049.83
 2.64192  1159.07
 2.75246  1254.3
 2.863  1343.44
 2.97354  1419.81
 3.08408  1490.76
 3.19463  1546.99
 3.30517  1603.8
 3.41571  1647.32
 3.52625  1695.19
 3.63679  1735.03
 3.74733  1764.4
 3.85787  1793.3
 3.96841  1816.84
 4.07895  1842.85
 4.18949  1858.19
 4.30003  1874.58
 4.41057  1890.9
 4.52111  1894.15
 4.63165  1908.03
 4.74219  1911.84
 4.85274  1915.34
 4.96328  1916.7
 5.07382  1923.7
 5.18436  1924.66
 5.2949  1920.56
 5.40544  1920.24
 5.51598  1919.31
 5.62652  1918.07
 5.73706  1915.06
 5.8476  1914.37
 5.95814  1911.37
 6.06868  1908.08
 6.17922  1909.31
 6.28976  1903.27
 6.4003  1899.89
 6.51085  1898.21
 6.62139  1894.23
 6.73193  1891.84
 6.84247  1885.16
 6.95301  1887.98
 7.06355  1883.57
 7.17409  1877.11
 7.28463  1875.27
 7.39517  1872.73
 7.50571  1871
 7.61625  1869.2
 7.72679  1863.84
 7.83733  1865.26
 7.94787  1868.58
 8.05841  1875.11
 8.16895  1874.45
 8.2795  1867.37
 8.39004  1867.16
 8.50058  1871.38
 8.61112  1865.61
 8.72166  1863.5
 8.8322  1865.85
 8.94274  1869.68
 9.05328  1874.36
 9.16382  1884.09
 9.27436  1891.02
 9.3849  1888.17
 9.49544  1892.41
 9.60598  1898.06
 9.71652  1927.31
 9.82707  1932.85
 9.93761  1950.89
 10.0481  1976.85
 10.1587  2041.24
 10.2692  2179.56
 10.3798  2247.72
 10.4903  2114.8
 10.6008  2065.89
 10.7114  2069.19
 10.8219  2094.89
 10.9325  2113.77
 11.043  2109.64
 11.1536  2119.16
 11.2641  2144.43
 11.3746  2172.19
 11.4852  2139.97
 11.5957  2099.88
 11.7063  2075.33
 11.8168  2074
 11.9273  2088.64
 12.0379  2136.11
 12.1484  2148.22
 12.259  2117.69
 12.3695  2081.92
 12.48  2027.69
 12.5906  1984.98
 12.7011  1971
 12.8117  1969.41
 12.9222  1966.58
 13.0327  1959.97
 13.1433  1958.01
 13.2538  1954.49
 13.3644  1956.63
 13.4749  1960.78
 13.5854  1961.33
 13.696  1962.84
 13.8065  1970.59
 13.9171  1968.81
 14.0276  1970.71
 14.1382  1974.11
 14.2487  1977.12
 14.3592  1978.85
 14.4698  1984.93
 14.5803  1995.8
 14.6909  2002.2
 14.8014  2005.69
 14.9119  2007.87
 15.0225  2004.44
 15.133  2006.58
 15.2436  2006.69
 15.3541  2009.46
 15.4646  2010.98
 15.5752  2014.27
 15.6857  2017.42
 15.7963  2018.19
 15.9068  2029.97
 16.0173  2042.26
 16.1279  2029.08
 16.2384  2029.53
 16.349  2029.94
 16.4595  2034.05
 16.57  2052.2
 16.6806  2105.02
 16.7911  2083.72
 16.9017  2052.44
 17.0122  2048.32
 17.1227  2032.22
 17.2333  2024.82
 17.3438  2017.89
 17.4544  2012.28
 17.5649  2011.43
 17.6755  2012.87
 17.786  2017.64
 17.8965  1998.35
 18.0071  1979.73
 18.1176  1964.16
 18.2282  1947.72
 18.3387  1936.6
 18.4492  1924.78
 18.5598  1917.94
 18.6703  1907.25
 18.7809  1897.98
 18.8914  1893.3
 19.0019  1885.46
 19.1125  1878.09
 19.223  1873.38
 19.3336  1866.84
 19.4441  1867.82
 19.5546  1865.39
 19.6652  1862.75
 19.7757  1859.96
 19.8863  1855.18
 19.9968  1848.25
 20.1073  1834.79
 20.2179  1818.49
 20.3284  1804.56
 20.439  1792.12
 20.5495  1780.74
 20.66  1770.44
 20.7706  1761.33
 20.8811  1747.71
 20.9917  1734.07
 21.1022  1723.18
 21.2128  1714.32
 21.3233  1705.17
 21.4338  1691.95
 21.5444  1681.3
 21.6549  1671.12
 21.7655  1660
 21.876  1652.09
 21.9865  1644.59
 22.0971  1636.21
 22.2076  1628.3
 22.3182  1622.58
 22.4287  1616.73
 22.5392  1611.24
 22.6498  1604.03
 22.7603  1595.64
 22.8709  1587.84
 22.9814  1577.67
 23.0919  1570.76
 23.2025  1307.23
 23.313  1158.07
 23.4236  1066.33
 23.5341  1009.84
 23.6446  976.922
 23.7552  947.893
 23.8657  938.756
 23.9763  934.604
 24.0868  928.594
 24.1974  892.426
 24.3079  832.876
 24.4184  749.558
 24.529  646.31
 24.6395  467.803
 24.7501  123.284
 24.8606  0.0000000E+00
 24.9711  0.0000000E+00
 25.0817  0.0000000E+00
 25.1922  0.0000000E+00
 25.3028  0.0000000E+00
 25.4133  0.0000000E+00
 25.5238  0.0000000E+00
 25.6344  0.0000000E+00
 25.7449  0.0000000E+00
 25.8555  0.0000000E+00
 25.966  0.0000000E+00
 26.0765  0.0000000E+00
 26.1871  0.0000000E+00
 26.2976  0.0000000E+00
 26.4082  0.0000000E+00
 26.5187  0.0000000E+00
 26.6292  0.0000000E+00
 26.7398  0.0000000E+00
 26.8503  0.0000000E+00
 26.9609  0.0000000E+00
 27.0714  0.0000000E+00
 27.182  0.0000000E+00
 27.2925  0.0000000E+00
 27.403  0.0000000E+00
 27.5136  0.0000000E+00
 27.6241  0.0000000E+00
 27.7347  0.0000000E+00
 27.8452  0.0000000E+00
 27.9557  0.0000000E+00
 28.0663  0.0000000E+00
 28.1768  0.0000000E+00
 28.2874  0.0000000E+00
 28.3979  0.0000000E+00
 28.5084  0.0000000E+00
 28.619  0.0000000E+00
 28.7295  0.0000000E+00
 28.8401  0.0000000E+00
 28.9506  0.0000000E+00
 29.0611  0.0000000E+00
 29.1717  0.0000000E+00
 29.2822  0.0000000E+00
 29.3928  0.0000000E+00
 29.5033  0.0000000E+00
 29.6138  0.0000000E+00
 29.7244  0.0000000E+00
 29.8349  0.0000000E+00
 29.9455  0.0000000E+00
 30.056  0.0000000E+00
 30.1665  0.0000000E+00
 30.2771  0.0000000E+00
 30.3876  0.0000000E+00
 30.4982  0.0000000E+00
 30.6087  0.0000000E+00
 30.7192  0.0000000E+00
 30.8298  0.0000000E+00
 30.9403  0.0000000E+00
 31.0509  0.0000000E+00
 31.1614  0.0000000E+00
 31.272  0.0000000E+00
 31.3825  0.0000000E+00
 31.493  0.0000000E+00
 31.6036  0.0000000E+00
 31.7141  0.0000000E+00
 31.8247  0.0000000E+00
 31.9352  0.0000000E+00
 32.0457  0.0000000E+00
 32.1563  0.0000000E+00
 32.2668  0.0000000E+00
 32.3774  0.0000000E+00
 32.4879  0.0000000E+00
 32.5984  0.0000000E+00
 32.709  0.0000000E+00
 32.7311  0.0000000E+00