Folder: BaH12_Nature_Communications_2021

Note: 0GPa.txt
#Acq. time (s)=	10
#Accumulations=	1
#Range=	Off
#Autofocus=	Off
#AutoExposure=	Off
#Spike filter=	Single accum. (Size=3)
#Delay time (s)=	0.1
#Binning=	1
#Readout mode=	Signal
#DeNoise=	Standard
#ICS correction=	On
#Dark correction=	Off
#Inst. Process=	Off
#Instrument=	LabRAM HR Evol
#Detector=	Synapse
#Objective=	x20SLWD
#Grating=	1800 gr/mm
#ND Filter=	100%
#Laser (nm)=	633 
#Spectro (cm-¹)=	1300
#Hole=	150.001
#Range=	Visible
#Collection=	Microscope
#StageXY=	Marzhauser
#StageZ=	Marzhauser
#X (µm)=	0
#Y (µm)=	0
#Z (µm)=	0
#Project=	20190124
#Sample=	1-2
#Site=	
#Title=	D_80
#Remark=	
#Date=	19.05.2019 01:41
#Acquired=	19.05.2019 01:41:24
1158.73	189.561
1159.01	188.867
1159.29	188.707
1159.57	188.857
1159.85	188.209
1160.14	187.49
1160.42	186.719
1160.7	185.968
1160.98	185.202
1161.26	184.507
1161.55	183.767
1161.83	183.466
1162.11	183.311
1162.39	183.229
1162.67	183.213
1162.95	183.236
1163.24	183.354
1163.52	183.482
1163.8	183.681
1164.08	183.906
1164.36	184.152
1164.64	184.428
1164.92	184.682
1165.21	184.941
1165.49	185.039
1165.77	185.17
1166.05	185.315
1166.33	185.422
1166.61	185.58
1166.89	185.727
1167.17	185.841
1167.46	185.976
1167.74	186.2
1168.02	186.127
1168.3	186.024
1168.58	185.868
1168.86	185.698
1169.14	185.457
1169.42	185.166
1169.71	184.941
1169.99	184.759
1170.27	184.845
1170.55	185.16
1170.83	185.426
1171.11	185.821
1171.39	186.207
1171.67	186.589
1171.95	186.965
1172.23	187.358
1172.52	187.764
1172.8	188.102
1173.08	188.167
1173.36	187.987
1173.64	187.814
1173.92	187.572
1174.2	187.398
1174.48	187.063
1174.76	186.644
1175.04	186.576
1175.32	186.512
1175.6	186.443
1175.89	186.702
1176.17	186.802
1176.45	186.883
1176.73	186.961
1177.01	187.021
1177.29	187.064
1177.57	187.065
1177.85	187.076
1178.13	186.975
1178.41	186.928
1178.69	186.782
1178.97	186.666
1179.25	186.52
1179.53	186.375
1179.81	186.215
1180.09	186.016
1180.37	185.801
1180.65	185.559
1180.93	185.302
1181.21	185.019
1181.5	184.723
1181.78	184.408
1182.06	184.077
1182.34	183.766
1182.62	183.481
1182.9	183.602
1183.18	183.393
1183.46	183.106
1183.74	183.569
1184.02	184.132
1184.3	184.718
1184.58	185.235
1184.86	185.669
1185.14	186.09
1185.42	186.485
1185.7	186.821
1185.98	187.211
1186.26	187.505
1186.54	187.153
1186.82	186.67
1187.1	186.239
1187.38	185.934
1187.66	185.711
1187.94	185.536
1188.22	185.287
1188.5	184.928
1188.78	184.668
1189.06	184.707
1189.34	185.127
1189.62	185.613
1189.9	186.011
1190.18	186.521
1190.45	186.943
1190.73	187.201
1191.02	187.235
1191.29	187.201
1191.57	187.066
1191.85	186.662
1192.13	186.187
1192.41	186.012
1192.69	185.904
1192.97	185.843
1193.25	185.652
1193.53	185.464
1193.81	185.381
1194.09	185.791
1194.37	186.435
1194.65	187.082
1194.93	187.3
1195.21	186.974
1195.49	186.367
1195.77	186.293
1196.05	186.293
1196.32	186.36
1196.6	186.432
1196.88	186.547
1197.16	186.746
1197.44	187.048
1197.72	187.2

Note: 01-146GPa.txt
1310.4	84.9352
1311.49	83.2542
1312.58	82.5235
1313.66	82.123
1314.75	81.6905
1315.84	81.7017
1316.92	81.4675
1318.01	81.732
1319.1	81.6319
1320.18	81.9871
1321.27	81.946
1322.35	82.2374
1323.44	82.3773
1324.53	82.8053
1325.61	83.1778
1326.7	84.1828
1327.78	84.6824
1328.87	85.4828
1329.95	86.3455
1331.03	87.08
1332.12	89.0027
1333.2	91.7
1334.29	92.4325
1335.37	94.7564
1336.45	99.0901
1337.54	106.715
1338.62	131
1339.7	167.739
1340.79	217.51
1341.87	263.204
1342.95	284.804
1344.03	290.039
1345.12	284.04
1346.2	272.494
1347.28	260.112
1348.36	250.688
1349.44	235.634
1350.52	225.958
1351.6	220.878
1352.69	214.758
1353.77	208.655
1354.85	203.344
1355.93	198.432
1357.01	194.302
1358.09	190.743
1359.17	187.697
1360.25	184.387
1361.33	181.22
1362.41	178.261
1363.48	175.358
1364.56	172.537
1365.64	169.97
1366.72	167.276
1367.8	164.299
1368.88	161.328
1369.96	158.615
1371.03	156.388
1372.11	154.356
1373.19	152.667
1374.27	151.018
1375.34	149.332
1376.42	147.708
1377.5	146.506
1378.58	145.553
1379.65	144.347
1380.73	143.189
1381.81	142.225
1382.88	141.048
1383.96	140.151
1385.03	139.108
1386.11	138.047
1387.18	136.685
1388.26	135.128
1389.33	133.512
1390.41	131.86
1391.48	130.579
1392.56	129.592
1393.63	128.6
1394.71	127.561
1395.78	126.552
1396.85	126.061
1397.93	125.515
1399	125.128
1400.08	124.702
1401.15	124.229
1402.22	124.287
1403.29	124.234
1404.37	124.087
1405.44	123.869
1406.51	123.286
1407.58	122.988
1408.66	122.338
1409.73	121.376
1410.8	120.191
1411.87	119.411
1412.94	118.417
1414.01	117.58
1415.09	116.525
1416.16	115.747
1417.23	114.949
1418.3	114.068
1419.37	113.519
1420.44	112.961
1421.51	112.763
1422.58	112.487
1423.65	112.374
1424.72	112.378
1425.79	112.488
1426.86	112.665
1427.92	112.971
1428.99	113.286
1430.06	113.448
1431.13	113.604
1432.2	113.812
1433.27	113.952
1434.33	113.588
1435.4	113.406
1436.47	112.921
1437.54	112.195
1438.61	111.557
1439.67	110.614
1440.74	109.672
1441.81	108.592
1442.87	107.137
1443.94	105.437
1445.01	104.852
1446.07	104.228
1447.14	104.098
1448.2	104.441
1449.27	105.003
1450.33	105.551
1451.4	106.45
1452.46	106.811
1453.53	107.157
1454.59	107.429
1455.66	107.625
1456.72	107.49
1457.79	107.106
1458.85	105.778
1459.92	105.478
1460.98	105.108
1462.04	104.872
1463.11	104.597
1464.17	104.591
1465.23	104.324
1466.3	104.384
1467.36	104.356
1468.42	104.621
1469.48	104.631
1470.55	104.66
1471.61	104.554
1472.67	104.117
1473.73	103.668
1474.79	103
1475.86	102.443
1476.92	101.795
1477.98	101.283
1479.04	100.889
1480.1	100.562
1481.16	100.337
1482.22	99.7952
1483.28	99.546
1484.34	99.3074
1485.4	99.2609
1486.46	99.2134
1487.52	99.5385
1488.58	99.9502
1489.64	100.317
1490.7	100.68
1491.76	101.003
1492.82	101.166
1493.87	101.414
1494.93	101.45
1495.99	101.477
1497.05	101.405
1498.11	101.761
1499.16	102.025
1500.22	102.071
1501.28	101.792
1502.34	1

Note: README.md
# BaH12_Nature_Communications_2021

txt files are usually Raman
tif images are XRD images
*.poni - calibration

File: BA_1.chi
D:\DATA\UserData\CuiTian20190403\CWH\BA\BA_1.tif: 2-theta Scan
2-Theta Angle (Degrees)
Intensity
       1138
 0.0816343  39.4326
 0.174931  36.2973
 0.268227  36.3993
 0.361523  37.6548
 0.45482  35.8194
 0.548116  38.8796
 0.641412  37.7287
 0.734709  37.569
 0.828005  37.7699
 0.921301  37.6919
 1.0146  37.9892
 1.10789  38.2291
 1.20119  38.4027
 1.29449  38.1871
 1.38778  38.6077
 1.48108  39.9014
 1.57438  40.1372
 1.66767  40.9681
 1.76097  42.2108
 1.85426  44.9184
 1.94756  87.8277
 2.04086  185.794
 2.13415  291.877
 2.22745  430.791
 2.32075  525.348
 2.41404  608.339
 2.50734  682.991
 2.60064  749.138
 2.69393  810.235
 2.78723  865.072
 2.88052  915.374
 2.97382  964.56
 3.06712  1002.8
 3.16041  1041.05
 3.25371  1071.98
 3.34701  1101.43
 3.4403  1131.37
 3.5336  1157.96
 3.62689  1183.14
 3.72019  1203.15
 3.81349  1215.01
 3.90678  1232.91
 4.00008  1246.95
 4.09338  1264.65
 4.18667  1271.34
 4.27997  1282.74
 4.37327  1293.77
 4.46656  1300.15
 4.55986  1302.09
 4.65315  1307.16
 4.74645  1311.08
 4.83975  1314.37
 4.93304  1316.2
 5.02634  1318.95
 5.11964  1317.87
 5.21293  1319.58
 5.30623  1317.26
 5.39952  1317.28
 5.49282  1320.74
 5.58612  1317.79
 5.67941  1315.86
 5.77271  1315.61
 5.86601  1311.83
 5.9593  1308.61
 6.0526  1309.01
 6.1459  1307.4
 6.23919  1307.49
 6.33249  1303.86
 6.42578  1302.9
 6.51908  1304.88
 6.61238  1299.82
 6.70567  1295.8
 6.79897  1295.65
 6.89227  1293.55
 6.98556  1288.04
 7.07886  1287.93
 7.17215  1286.37
 7.26545  1284.53
 7.35875  1280.75
 7.45204  1277.73
 7.54534  1277.98
 7.63864  1277.08
 7.73193  1274.4
 7.82523  1273.55
 7.91853  1272.01
 8.01182  1270.5
 8.10512  1268.01
 8.19841  1268.41
 8.29171  1266.04
 8.38501  1265.89
 8.4783  1265.17
 8.5716  1264.46
 8.6649  1267.75
 8.75819  1274.1
 8.85149  1308.45
 8.94479  1286.79
 9.03808  1272.98
 9.13138  1294.67
 9.22467  1352.87
 9.31797  1307.96
 9.41127  1298.3
 9.50456  1302.81
 9.59786  1440.37
 9.69116  1303.35
 9.78445  1301.1
 9.87775  1305.54
 9.97104  1311.48
 10.0643  1329.94
 10.1576  1345.06
 10.2509  1347.64
 10.3442  1328.62
 10.4375  1323.77
 10.5308  1324.06
 10.6241  1329.85
 10.7174  1369.36
 10.8107  1351.86
 10.904  1342.01
 10.9973  1363.94
 11.0906  1389.39
 11.1839  1492.26
 11.2772  2716.56
 11.3705  1912.69
 11.4638  1474.73
 11.5571  1434.05
 11.6504  1431.59
 11.7437  1443.51
 11.837  1498.89
 11.9303  1581.19
 12.0236  1529.29
 12.1169  1470.81
 12.2102  1467.58
 12.3035  1469.97
 12.3967  1481.73
 12.49  1513.49
 12.5833  1580.49
 12.6766  1558.61
 12.7699  1538.45
 12.8632  1559.56
 12.9565  1736.59
 13.0498  2232.34
 13.1431  2029.58
 13.2364  1580.71
 13.3297  1561.55
 13.423  1565.98
 13.5163  1578.8
 13.6096  1580.42
 13.7029  1580.57
 13.7962  1585.5
 13.8895  1592.2
 13.9828  1596.99
 14.0761  1611.17
 14.1694  1626.22
 14.2627  1633.53
 14.356  1633.38
 14.4493  1643.7
 14.5426  1697.73
 14.6359  1691.68
 14.7292  1670.34
 14.8225  1676.97
 14.9158  1681.67
 15.009  1690.99
 15.1023  1698.38
 15.1956  1706.83
 15.2889  1716.19
 15.3822  1724.98
 15.4755  1737.89
 15.5688  1744.65
 15.6621  1756.51
 15.7554  1769.36
 15.8487  1784.18
 15.942  1797.95
 16.0353  1814.45
 16.1286  1839.83
 16.2219  1846.12
 16.3152  1828.52
 16.4085  1827.96
 16.5018  1834.83
 16.5951  1841.88
 16.6884  1849.4
 16.7817  1858.07
 16.875  1869.95
 16.9683  1882.38
 17.0616  1893.36
 17.1549  1899.62
 17.2482  1911.7
 17.3415  1923.6
 17.4348  1941.85
 17.528  1983.81
 17.6213  2049.76
 17.7146  2076.96
 17.8079  2063
 17.9012  2046.75
 17.9945  2038.43
 18.0878  2034.79
 18.1811  2045.7
 18.2744  2080.14
 18.3677  2502.91
 18.461  3264.51
 18.5543  3215.35
 18.6476  2211.22
 18.7409  2110.4
 18.8342  2085.02
 18.9275  2086.57
 19.0208  2090.27
 19.1141  2084.35
 19.2074  2086.7
 19.3007  2090.71
 19.394  2096.89
 19.4873  2106.89
 19.5806  2127.1
 19.6739  2140.48
 19.7672  2135.23
 19.8605  2140.91
 19.9538  2143.73
 20.047  2146.58
 20.1403  2153.5
 20.2336  2158.33
 20.3269  2166.01
 20.4202  2178.81
 20.5135  2187.3
 20.6068  2227.77
 20.7001  2214.99
 20.7934  2213.81
 20.8867  2206.05
 20.98  2211.89
 21.0733  2219.99
 21.1666  2237.7
 21.2599  2252.05
 21.3532  2278.15
 21.4465  2339.14
 21.5398  2621.23
 21.6331  3012.65
 21.7264  3026.18
 21.8197  2741.91
 21.913  2378.47
 22.0063  2298.47
 22.0996  2281.88
 22.1929  2282.48
 22.2862  2284.8
 22.3795  2291.41
 22.4728  2301.23
 22.5661  2330.96
 22.6593  2728.89
 22.7526  2421.82
 22.8459  2314.94
 22.9392  2302.94
 23.0325  2300.84
 23.1258  2295.41
 23.2191  2295.11
 23.3124  2294.56
 23.4057  2200.27
 23.499  1880.66
 23.5923  1881.22
 23.6856  1697.56
 23.7789  1587.94
 23.8722  1645.79
 23.9655  1711.84
 24.0588  1777.26
 24.1521  1841.64
 24.2454  1906.32
 24.3387  1969.15
 24.432  2094.17
 24.5253  2105.31
 24.6186  2157.32
 24.7119  1967.34
 24.8052  1507.23
 24.8985  1131.44
 24.9918  77.8723
 25.0851  0.0000000E+00
 25.1783  0.0000000E+00
 25.2716  0.0000000E+00
 25.3649  0.0000000E+00
 25.4582  0.0000000E+00
 25.5515  0.0000000E+00
 25.6448  0.0000000E+00
 25.7381  0.0000000E+00
 25.8314  0.0000000E+00
 25.9247  0.0000000E+00
 26.018  0.0000000E+00
 26.1113  0.0000000E+00
 26.2046  0.0000000E+00
 26.2979  0.0000000E+00
 26.3912  0.0000000E+00
 26.4845  0.0000000E+00
 26.5311  0.0000000E+00

File: BA_2.chi
D:\DATA\UserData\CuiTian20190403\CWH\BA\BA_2.tif: 2-theta Scan
2-Theta Angle (Degrees)
Intensity
       1128
 0.0817112  40.3839
 0.175095  37.9308
 0.26848  38.7217
 0.361864  37.286
 0.455248  37.7183
 0.548632  37.6201
 0.642016  37.5866
 0.7354  37.4521
 0.828785  36.9815
 0.922169  37.4957
 1.01555  37.5352
 1.10894  37.7549
 1.20232  38.2453
 1.29571  39.3438
 1.38909  38.8852
 1.48247  40.2453
 1.57586  40.4879
 1.66924  40.7605
 1.76263  41.9542
 1.85601  45.4243
 1.94939  89.8751
 2.04278  189.671
 2.13616  297.247
 2.22955  436.604
 2.32293  530.687
 2.41632  611.174
 2.5097  684.816
 2.60308  754.359
 2.69647  812.268
 2.78985  867.82
 2.88324  917.835
 2.97662  964.158
 3.07001  1005.33
 3.16339  1040.86
 3.25677  1077.08
 3.35016  1107.41
 3.44354  1129.73
 3.53693  1159.07
 3.63031  1182.94
 3.72369  1200.29
 3.81708  1219.89
 3.91046  1235.26
 4.00385  1249.8
 4.09723  1259.52
 4.19062  1273.26
 4.284  1279.81
 4.37738  1288.57
 4.47077  1295.96
 4.56415  1300.95
 4.65754  1303.76
 4.75092  1311.16
 4.8443  1315.55
 4.93769  1314.96
 5.03107  1316.13
 5.12446  1315.86
 5.21784  1317.51
 5.31123  1315.75
 5.40461  1315.48
 5.49799  1317.02
 5.59138  1314.43
 5.68476  1312.64
 5.77815  1314.13
 5.87153  1310.24
 5.96491  1310.57
 6.0583  1307.76
 6.15168  1305.66
 6.24507  1303.62
 6.33845  1304.17
 6.43184  1303.47
 6.52522  1303.04
 6.6186  1299.24
 6.71199  1296.76
 6.80537  1293.97
 6.89876  1289.44
 6.99214  1289.11
 7.08552  1285.95
 7.17891  1285.79
 7.27229  1284.16
 7.36568  1281.62
 7.45906  1277.14
 7.55245  1276.63
 7.64583  1277.63
 7.73921  1273.19
 7.8326  1272.44
 7.92598  1272.02
 8.01937  1270.97
 8.11275  1269.87
 8.20613  1266.47
 8.29952  1265.37
 8.3929  1267.4
 8.48629  1269.07
 8.57967  1269.07
 8.67306  1275.06
 8.76644  1295.55
 8.85982  1348.69
 8.95321  1316.24
 9.04659  1286.34
 9.13998  1279.63
 9.23336  1302.48
 9.32675  1286.46
 9.42013  1280.57
 9.51351  1275.66
 9.6069  1390.03
 9.70028  1270.53
 9.79367  1267.4
 9.88705  1267.92
 9.98043  1278.14
 10.0738  1310.21
 10.1672  1320.46
 10.2606  1329.17
 10.354  1317.06
 10.4474  1312.58
 10.5407  1327.59
 10.6341  1341.86
 10.7275  1365.06
 10.8209  1452.46
 10.9143  1378.84
 11.0077  1386.55
 11.101  1414.31
 11.1944  1572.31
 11.2878  2316.27
 11.3812  1657.08
 11.4746  1465.72
 11.568  1435.51
 11.6614  1430.79
 11.7547  1443.8
 11.8481  1491.5
 11.9415  1497.13
 12.0349  1468.75
 12.1283  1456.75
 12.2217  1459.75
 12.315  1469.09
 12.4084  1481.07
 12.5018  1517.35
 12.5952  1566.16
 12.6886  1541.58
 12.782  1544.37
 12.8753  1578.22
 12.9687  1739.23
 13.0621  1978.31
 13.1555  1753.36
 13.2489  1565.08
 13.3423  1557.54
 13.4357  1563.55
 13.529  1577.49
 13.6224  1577.52
 13.7158  1578.79
 13.8092  1580.71
 13.9026  1588.88
 13.996  1595.19
 14.0893  1606.98
 14.1827  1611.79
 14.2761  1623.33
 14.3695  1631.9
 14.4629  1641.42
 14.5563  1672.96
 14.6496  1674.24
 14.743  1668.36
 14.8364  1671.32
 14.9298  1681.58
 15.0232  1687.99
 15.1166  1698.7
 15.2099  1706.47
 15.3033  1714.97
 15.3967  1722.87
 15.4901  1733.55
 15.5835  1748.96
 15.6769  1770.87
 15.7703  1782.81
 15.8636  1791.7
 15.957  1800.52
 16.0504  1805.84
 16.1438  1828.35
 16.2372  1823.76
 16.3306  1819.42
 16.4239  1826.49
 16.5173  1832.24
 16.6107  1839.65
 16.7041  1848.21
 16.7975  1861.31
 16.8909  1873.31
 16.9842  1884.27
 17.0776  1891.44
 17.171  1897.42
 17.2644  1910.35
 17.3578  1927.47
 17.4512  1950.33
 17.5446  1990.86
 17.6379  2082.07
 17.7313  2108.74
 17.8247  2093.2
 17.9181  2066.66
 18.0115  2042.82
 18.1049  2030.29
 18.1982  2035.68
 18.2916  2061.95
 18.385  2169.67
 18.4784  2434.14
 18.5718  2227.77
 18.6652  2091.27
 18.7585  2070.47
 18.8519  2073.68
 18.9453  2080.14
 19.0387  2085.06
 19.1321  2078.97
 19.2255  2079.37
 19.3189  2086.14
 19.4122  2094.81
 19.5056  2101.67
 19.599  2125.21
 19.6924  2124.89
 19.7858  2132.31
 19.8792  2143.39
 19.9725  2147.07
 20.0659  2153.11
 20.1593  2158.1
 20.2527  2158.87
 20.3461  2168.71
 20.4395  2170.17
 20.5328  2184.08
 20.6262  2228.74
 20.7196  2209.84
 20.813  2202.3
 20.9064  2206.11
 20.9998  2206.8
 21.0932  2218.41
 21.1865  2231.07
 21.2799  2235.92
 21.3733  2251.63
 21.4667  2285.6
 21.5601  2406.63
 21.6535  2693.63
 21.7468  2644.2
 21.8402  2370.64
 21.9336  2293.43
 22.027  2278.2
 22.1204  2278.46
 22.2138  2275.85
 22.3071  2278.18
 22.4005  2286.81
 22.4939  2292.31
 22.5873  2309.77
 22.6807  2381.45
 22.7741  2312.78
 22.8675  2295.51
 22.9608  2294.57
 23.0542  2293.53
 23.1476  2293.07
 23.241  2292.04
 23.3344  2290.39
 23.4278  2031.54
 23.5211  1828.03
 23.6145  1742.98
 23.7079  1603.27
 23.8013  1568.87
 23.8947  1631.99
 23.9881  1692.85
 24.0814  1747.94
 24.1748  1809.44
 24.2682  1871.99
 24.3616  1962.76
 24.455  2075.43
 24.5484  2068.07
 24.6418  2050.78
 24.7351  1743.6
 24.8285  1090.95
 24.9219  935.149
 25.0153  0.129273
 25.1087  0.0000000E+00
 25.2021  0.0000000E+00
 25.2954  0.0000000E+00
 25.3888  0.0000000E+00
 25.4822  0.0000000E+00
 25.5756  0.0000000E+00
 25.669  0.0000000E+00
 25.7624  0.0000000E+00
 25.8557  0.0000000E+00
 25.9491  0.0000000E+00
 26.0425  0.0000000E+00
 26.1359  0.0000000E+00
 26.2293  0.0000000E+00
 26.3227  0.0000000E+00

File: BA_3.chi
D:\DATA\UserData\CuiTian20190403\CWH\BA\BA_3.tif: 2-theta Scan
2-Theta Angle (Degrees)
Intensity
       1165
 0.0813703  40.2246
 0.174365  40.3881
 0.267359  38.4044
 0.360354  37.3444
 0.453349  36.8573
 0.546343  36.8463
 0.639338  37.4882
 0.732332  37.3877
 0.825327  37.1539
 0.918322  37.9102
 1.01132  37.7396
 1.10431  37.449
 1.19731  38.091
 1.2903  38.5549
 1.38329  38.684
 1.47629  39.0267
 1.56928  39.2342
 1.66228  41.0786
 1.75527  41.4809
 1.84827  43.8799
 1.94126  81.7586
 2.03426  181.113
 2.12725  279.732
 2.22025  416.268
 2.31324  513.952
 2.40624  592.206
 2.49923  669.018
 2.59222  729.635
 2.68522  790.648
 2.77821  845.341
 2.87121  897.985
 2.9642  940.398
 3.0572  983.54
 3.15019  1022.93
 3.24319  1053.63
 3.33618  1083.76
 3.42918  1110.79
 3.52217  1134.22
 3.61517  1157.22
 3.70816  1173.53
 3.80115  1197.14
 3.89415  1213.03
 3.98714  1223.49
 4.08014  1237.61
 4.17313  1245.49
 4.26613  1254.55
 4.35912  1262.02
 4.45212  1274.24
 4.54511  1278.94
 4.63811  1285.27
 4.7311  1284.08
 4.82409  1285.82
 4.91709  1290.26
 5.01008  1291.04
 5.10308  1289.55
 5.19607  1293.17
 5.28907  1293.33
 5.38206  1291.31
 5.47506  1293.43
 5.56805  1290.52
 5.66105  1289.42
 5.75404  1288.2
 5.84704  1287.65
 5.94003  1287.2
 6.03302  1283.57
 6.12602  1279.71
 6.21901  1279.94
 6.31201  1278.17
 6.405  1277.66
 6.498  1278.59
 6.59099  1273.11
 6.68399  1271.98
 6.77698  1270.55
 6.86998  1265.85
 6.96297  1265.11
 7.05596  1264.17
 7.14896  1261.74
 7.24195  1258.73
 7.33495  1254
 7.42794  1253.52
 7.52094  1251.59
 7.61393  1251.38
 7.70693  1249.83
 7.79992  1246.72
 7.89292  1246.94
 7.98591  1246.6
 8.07891  1244.74
 8.1719  1244.38
 8.26489  1241.01
 8.35789  1241.48
 8.45088  1240.97
 8.54388  1240.44
 8.63687  1242.02
 8.72987  1246.63
 8.82286  1274.99
 8.91586  1276.53
 9.00885  1250.11
 9.10185  1244.85
 9.19484  1269.9
 9.28784  1260.97
 9.38083  1243.78
 9.47382  1240.4
 9.56682  1285.12
 9.65981  1310.68
 9.75281  1244.24
 9.8458  1246.67
 9.9388  1247.85
 10.0318  1268.57
 10.1248  1280.62
 10.2178  1288.01
 10.3108  1270.07
 10.4038  1274.79
 10.4968  1282.22
 10.5898  1286.91
 10.6828  1319.29
 10.7757  1300.18
 10.8687  1298.68
 10.9617  1309.41
 11.0547  1318.63
 11.1477  1349.42
 11.2407  1696.71
 11.3337  1695.88
 11.4267  1387.72
 11.5197  1347.02
 11.6127  1332.53
 11.7057  1338.39
 11.7987  1366.73
 11.8917  1449.97
 11.9847  1443.21
 12.0777  1368.88
 12.1707  1348.36
 12.2637  1348.93
 12.3567  1351.59
 12.4497  1361.37
 12.5426  1405.09
 12.6356  1440.83
 12.7286  1433.11
 12.8216  1446.35
 12.9146  1535.68
 13.0076  1695.19
 13.1006  2019.48
 13.1936  1526.79
 13.2866  1468.41
 13.3796  1467.43
 13.4726  1479.1
 13.5656  1487.65
 13.6586  1489.58
 13.7516  1488.82
 13.8446  1490.62
 13.9376  1501.92
 14.0306  1516.49
 14.1236  1540.34
 14.2165  1570.01
 14.3095  1556.29
 14.4025  1551.42
 14.4955  1567.35
 14.5885  1574.91
 14.6815  1568.99
 14.7745  1572
 14.8675  1577.07
 14.9605  1585.6
 15.0535  1594.15
 15.1465  1601.96
 15.2395  1609.65
 15.3325  1614.2
 15.4255  1624.73
 15.5185  1636.5
 15.6115  1647.57
 15.7045  1660.53
 15.7975  1671.73
 15.8905  1705.41
 15.9834  1704.37
 16.0764  1715.47
 16.1694  1743.32
 16.2624  1735.73
 16.3554  1719.05
 16.4484  1722.96
 16.5414  1731.43
 16.6344  1737.58
 16.7274  1748.35
 16.8204  1756.88
 16.9134  1771.59
 17.0064  1781.27
 17.0994  1787.46
 17.1924  1796.09
 17.2854  1806.11
 17.3784  1820.99
 17.4714  1843.74
 17.5644  1883.98
 17.6573  1934.46
 17.7503  1929.56
 17.8433  1922.99
 17.9363  1920.86
 18.0293  1914.91
 18.1223  1915.92
 18.2153  1932.88
 18.3083  1968.31
 18.4013  2151.49
 18.4943  3171.55
 18.5873  2141.17
 18.6803  1992.24
 18.7733  1964.74
 18.8663  1965.49
 18.9593  1976.74
 19.0523  1974.99
 19.1453  1981.72
 19.2383  1989.18
 19.3313  1986.75
 19.4242  1988.66
 19.5172  1995.15
 19.6102  2017.98
 19.7032  2011.66
 19.7962  2017.9
 19.8892  2025.84
 19.9822  2030.31
 20.0752  2032.48
 20.1682  2037.13
 20.2612  2043.69
 20.3542  2050.46
 20.4472  2059.11
 20.5402  2082.68
 20.6332  2095.33
 20.7262  2085.78
 20.8192  2085.12
 20.9122  2086.38
 21.0052  2093.88
 21.0982  2100.61
 21.1911  2117.98
 21.2841  2129.59
 21.3771  2161.32
 21.4701  2217.94
 21.5631  2357.07
 21.6561  2619.9
 21.7491  2549.2
 21.8421  2293.94
 21.9351  2183.15
 22.0281  2158.89
 22.1211  2155.42
 22.2141  2153.98
 22.3071  2158.18
 22.4001  2165.84
 22.4931  2177.49
 22.5861  2207.75
 22.6791  2275.76
 22.7721  2196.28
 22.865  2176.82
 22.958  2174.64
 23.051  2175.06
 23.144  2173.64
 23.237  2171.59
 23.33  2173.25
 23.423  1954.82
 23.516  1718.67
 23.609  1651.02
 23.702  1526.48
 23.795  1441.52
 23.888  1458.85
 23.981  1507.9
 24.074  1556.46
 24.167  1596.91
 24.26  1639.85
 24.353  1689.33
 24.446  1739.63
 24.5389  1780.51
 24.6319  1770.66
 24.7249  1535.92
 24.8179  1188.36
 24.9109  864.839
 25.0039  42.8344
 25.0969  0.0000000E+00
 25.1899  0.0000000E+00
 25.2829  0.0000000E+00
 25.3759  0.0000000E+00
 25.4689  0.0000000E+00
 25.5619  0.0000000E+00
 25.6549  0.0000000E+00
 25.7479  0.0000000E+00
 25.8409  0.0000000E+00
 25.9339  0.0000000E+00
 26.0269  0.0000000E+00
 26.1199  0.0000000E+00
 26.2129  0.0000000E+00
 26.3058  0.0000000E+00
 26.3988  0.0000000E+00
 26.4918  0.0000000E+00
 26.5848  0.0000000E+00
 26.6778  0.0000000E+00
 26.7708  0.0000000E+00
 26.8638  0.0000000E+00
 26.9568  0.0000000E+00
 27.0498  0.0000000E+00
 27.0731  0.0000000E+00